Vx,Vy,Vz,Ax,Ay,Az
310,143,268,-4097,3588,255574
284,74,36,-4118,3702,255519
256,90,224,-4147,3618,255568
206,170,233,-4097,3558,255602
215,86,85,-4058,3565,255617
201,93,277,-4058,3554,255519
187,173,98,-4094,3596,255485
176,141,-118,-4123,3690,255597
190,97,59,-4076,3588,255546
201,48,-47,-4142,3670,255566
225,-70,-10,-4120,3663,255607
224,-163,365,-4091,3611,255659
222,-215,340,-4101,3521,255682
190,-165,402,-4103,3605,255608
177,-170,528,-4124,3565,255662
143,-193,351,-4083,3559,255594
86,-62,256,-4179,3574,255466
34,-50,198,-4088,3651,255577
-4,-159,83,-4118,3614,255563
-56,-72,204,-4170,3535,255476
-79,-28,161,-4039,3630,255526
-96,-55,84,-4153,3586,255478
-123,81,154,-4133,3616,255555
-143,116,38,-4045,3688,255694
-124,70,-11,-4096,3594,255541
-127,129,24,-4073,3585,255633
-141,136,-104,-4111,3660,255653
-150,148,-1,-4148,3654,255488
-162,186,46,-4174,3617,255696
-146,185,40,-4101,3643,255589
-153,211,209,-4127,3609,255503
-161,217,208,-4134,3651,255595
-156,189,168,-4076,3627,255615
-193,179,276,-4124,3595,255622
-194,153,153,-4143,3549,255593
-203,179,28,-4099,3549,255519
-227,245,84,-4106,3596,255512
-247,202,-36,-4123,3614,255629
-259,183,149,-4130,3599,255582
-268,189,329,-4138,3620,255588
-209,101,237,-4123,3613,255547
-230,144,333,-4107,3596,255580
-194,188,162,-4117,3560,255572
-157,182,-103,-4143,3575,255607
-127,180,-50,-4095,3618,255542
-100,171,-31,-4165,3650,255583
-36,117,32,-4184,3659,255453
-10,119,257,-4167,3607,255598
48,73,276,-4084,3577,255552
77,45,325,-4087,3558,255584
81,105,356,-4132,3528,255493
78,130,115,-4187,3548,255521
58,166,33,-4115,3690,255499
46,204,37,-4146,3693,255575
18,165,31,-4064,3582,255595
20,118,239,-3997,3649,255536
11,90,345,-4000,3559,255629
1,81,226,-4107,3603,255519
-50,95,240,-4189,3634,255411
-69,82,92,-4118,3608,255497
-87,66,-105,-4111,3620,255580
-107,80,-53,-4180,3615,255526
-86,36,-9,-4134,3651,255498
-66,-23,14,-4091,3576,255517
-41,-26,93,-4095,3613,255581
-30,-80,145,-4055,3627,255570
2,-133,201,-4118,3528,255549
11,-97,271,-4155,3550,255465
21,-85,106,-4110,3643,255606
23,-83,72,-4176,3651,255543
13,-71,154,-4142,3642,255591
23,-57,186,-4107,3613,255584
17,-8,266,-4075,3578,255681
16,40,103,-4095,3573,255703
7,119,211,-4099,3652,255617
-28,102,-99,-4146,3688,255534
-14,123,168,-4160,3578,255532
0,143,219,-4153,3609,255715
-9,161,-45,-4144,3632,255532
37,276,329,-4084,3640,255616
22,236,-286,-4078,3602,255633
93,304,-56,-4057,3523,255397
90,249,176,-4069,3627,255615
147,28,-192,-4134,3551,255641
160,130,283,-4135,3542,255648
118,-35,220,-4145,3699,255674
167,-171,-67,-4056,3550,255545
113,-16,819,-4049,3522,255560
72,-202,-48,-4124,3612,255805
127,-190,134,-4100,3531,255459
108,-88,954,-4099,3620,255519
147,-436,-331,-4128,3540,255668
25,-162,744,-4100,3549,255426
96,-268,500,-4083,3683,255803
124,-371,-123,-4092,3545,255486
67,-16,921,-4079,3655,255523
65,-287,-307,-4133,3665,255586
129,-38,64,-4084,3519,255473
115,10,937,-4161,3629,255628
138,-329,-505,-4116,3513,255617
131,75,470,-4144,3509,255306
94,-158,479,-4114,3665,255703
223,-211,-516,-4209,3575,255565
-16,175,1076,-4097,3653,255428
72,-215,-557,-4195,3636,255780
-1,151,-131,-4127,3541,255441
10,197,838,-4130,3724,255650
19,-169,-877,-4155,3563,255583
-149,341,399,-4032,3590,255367
17,-42,256,-4089,3661,255833
-102,39,-713,-4148,3526,255551
-71,370,784,-4117,3646,255512
-152,-67,-467,-4163,3661,255685
-155,329,-363,-4197,3513,255369
-179,354,810,-4139,3709,255713
-184,22,-742,-4147,3636,255671
-246,497,417,-4095,3538,255400
-327,185,-10,-4146,3696,255798
-209,189,-699,-4217,3499,255525
-312,473,1090,-4157,3671,255556
-316,20,-448,-4149,3675,255745
-256,367,18,-4096,3476,255414
-223,395,1197,-4159,3691,255669
-191,30,-562,-4113,3471,255661
-285,487,493,-4072,3566,255375
-195,192,703,-4115,3669,255753
-127,109,-733,-4142,3515,255503
-311,504,977,-4100,3563,255318
-203,-27,-20,-4141,3711,255751
-201,210,-440,-4147,3514,255357
-224,377,1647,-4111,3736,255566
-204,-210,-753,-4174,3696,255921
-225,380,-228,-4106,3462,255268
-142,158,1644,-4108,3806,255741
-178,-371,-1481,-4112,3431,255776
-193,411,485,-4071,3589,255203
-25,-183,1699,-4083,3812,255825
-100,-331,-1698,-4103,3409,255466
-144,576,1257,-4072,3660,255122
-3,-277,845,-4160,3854,255915
-74,-68,-1958,-4122,3305,255374
-54,485,2124,-4081,3718,255388
106,-650,-47,-4080,3703,256182
37,-15,-1406,-4088,3226,255067
82,300,2862,-4085,3823,255576
184,-686,-1241,-4192,3600,256044
124,351,-796,-4050,3324,254835
102,327,2547,-4179,3921,255624
210,-581,-2643,-4116,3526,255792
155,593,325,-3981,3486,254864
144,49,1978,-4118,4016,256149
230,-622,-3043,-4125,3417,255735
115,683,2011,-4061,3544,255140
212,-260,1281,-4267,3956,256499
191,-478,-2814,-3953,3334,255365
31,864,2866,-4028,3591,255187
290,-378,-247,-4241,3795,256189
96,-172,-2342,-3928,3199,254919
13,817,2996,-4072,3711,255290
250,-626,-1546,-4157,3756,256088
18,29,-976,-4032,3326,254842
6,598,2918,-4184,3866,255848
207,-750,-2273,-4150,3739,256153
23,304,396,-4073,3313,254949
2,404,2199,-4260,3842,256029
146,-722,-2700,-4138,3528,255901
-49,536,1289,-4009,3312,254856
0,175,1253,-4223,3848,256085
136,-697,-2432,-4093,3421,255540
-47,588,2050,-4071,3393,254831
125,-81,466,-4164,3927,256097
95,-579,-1928,-3991,3498,255324
-45,735,2226,-4054,3548,255131
134,-166,-438,-4233,3967,256306
19,-388,-1365,-4023,3420,255248
-42,743,2153,-4063,3597,255436
80,-367,-809,-4172,3940,256222
-13,-276,-445,-4013,3420,255056
-108,703,1975,-4120,3638,255512
43,-449,-994,-4190,3907,255992
-117,-72,153,-3980,3226,254880
-178,654,1389,-4138,3667,255755
23,-500,-945,-4161,3822,255917
-166,75,468,-4119,3307,255143
-149,558,773,-4208,3798,255829
-9,-561,-742,-4126,3811,255779
-213,115,608,-4111,3364,255224
-167,387,372,-4172,3806,255780
-45,-661,-277,-4086,3712,255724
-212,135,712,-4133,3239,255329
-174,278,76,-4142,3807,255838
-56,-572,-182,-4086,3695,255491
-187,338,561,-4063,3178,255237
-170,235,19,-4190,3739,255748
-87,-485,-150,-4102,3524,255544
-167,558,691,-4158,3311,255367
-140,194,180,-4236,3914,255909
-211,-351,-396,-4160,3521,255447
-196,710,585,-4200,3410,255390
-90,127,19,-4204,3967,255884
-127,-211,-162,-4119,3394,255333
-229,678,458,-4057,3482,255529
-104,-30,-622,-4091,3908,255775
-43,-10,551,-4075,3301,255248
-193,465,563,-4123,3581,255713
-121,-163,-780,-4097,3762,255747
-123,171,1001,-4073,3516,255362
-94,267,30,-4161,3583,255867
-34,20,-466,-4141,3718,255564
-173,261,1053,-4119,3596,255511
-102,16,-1003,-4200,3644,255725
-5,216,110,-4127,3627,255371
51,108,1243,-4144,3603,255635
27,-109,-1137,-4168,3454,255516
-56,387,992,-4066,3641,255403
145,-108,451,-4023,3697,256052
142,130,-923,-4093,3484,255511
-10,499,1615,-4063,3743,255434
53,-319,-814,-4148,3591,255908
66,486,-133,-4067,3466,255267
55,267,2015,-4085,3888,255742
42,-454,-1611,-4159,3444,255746
64,673,559,-4004,3511,254894
100,-105,1660,-4111,3856,255855
139,-425,-1947,-4165,3412,255551
-47,724,1006,-4101,3623,255214
163,-384,710,-4278,3984,256190
205,-254,-1882,-4083,3319,255492
-43,698,1567,-4067,3717,255347
255,-653,8,-4197,3894,256070
142,-115,-1342,-4074,3155,255145
84,601,1865,-4087,3773,255560
267,-744,-719,-4126,3762,255919
135,153,-722,-4041,3144,254964
90,526,1933,-4141,3904,255760
202,-734,-1474,-4196,3680,255965
119,436,-100,-4074,3251,255077
128,380,1721,-4102,4022,255989
350,-766,-1531,-4110,3525,255715
167,527,1016,-3984,3335,255094
215,81,1110,-4175,3968,256061
332,-575,-1338,-4126,3350,255539
184,648,1846,-4104,3448,255251
207,24,-72,-4159,3906,256120
264,-180,-1257,-4102,3477,255320
105,707,2016,-4130,3522,255408
187,-54,-1181,-4221,3757,256020
190,-4,-390,-4045,3455,255192
12,485,1937,-4064,3587,255700
105,-223,-1581,-4165,3677,255942
-27,88,777,-4057,3418,255196
-158,344,1220,-4147,3649,255793
-25,-263,-1728,-4167,3704,255625
-256,198,1374,-4026,3482,255053
-233,268,-1,-4264,3631,255959
-165,-324,-1377,-4128,3698,255565
-300,133,1844,-4029,3374,255271
-206,78,-805,-4245,3625,255925
-205,-278,-536,-4095,3669,255381
-214,140,1793,-4167,3438,255412
-201,12,-1302,-4154,3712,255834
-278,-33,137,-4004,3655,255269
-265,217,1053,-4135,3556,255639
-290,25,-1512,-4157,3711,255666
-319,119,733,-4007,3605,255326
-346,90,587,-4148,3508,255780
-320,-117,-865,-4081,3595,255621
-364,90,1495,-4100,3593,255388
-350,-58,330,-4173,3629,255997
-321,-121,-291,-4137,3640,255498
-341,167,1568,-4153,3598,255564
-275,-14,-255,-4212,3651,255890
-266,-17,-85,-4135,3535,255324
-267,286,1081,-4107,3562,255479
-200,63,-843,-4123,3687,255697
-249,26,176,-4059,3633,255408
-234,218,781,-4100,3588,255634
-197,-56,-891,-4081,3640,255626
-218,-45,650,-4075,3571,255413
-209,107,592,-4119,3582,255830
-201,-130,-867,-4220,3689,255602
-147,-28,1303,-4181,3583,255281
-212,21,-294,-4161,3546,255750
-23,-156,-343,-4084,3692,255448
-68,103,1232,-4075,3610,255601
17,-173,-559,-4156,3616,255759
46,-48,94,-4045,3620,255467
-4,-63,831,-4109,3670,255643
195,-194,-209,-4109,3533,255611
86,-70,-27,-4088,3687,255528
193,-40,730,-4153,3571,255587
215,-187,-267,-4075,3612,255528
165,-51,253,-4066,3636,255312
307,66,498,-4130,3528,255638
285,-153,-645,-4125,3686,255520
393,38,1041,-4023,3519,255264
315,127,8,-4126,3667,255761
259,-71,-627,-4090,3630,255546
273,229,459,-4198,3576,255508
193,158,7,-4166,3702,255739
355,-18,-597,-4167,3616,255489
58,225,917,-4147,3578,255581
317,-45,-490,-4163,3724,255727
195,61,-290,-4120,3519,255380
187,354,997,-4154,3658,255661
368,-156,-964,-4160,3613,255623
63,233,585,-4060,3518,255260
290,181,-112,-4074,3740,255904
75,-151,-398,-4132,3616,255463
315,314,929,-4144,3616,255464
79,-45,151,-4146,3696,255806
55,68,-288,-4092,3567,255374
40,338,822,-4039,3630,255418
63,-55,-723,-4160,3647,255556
144,350,693,-4096,3632,255523
-130,99,529,-4118,3644,255784
83,46,-875,-4107,3609,255560
-183,331,1445,-4066,3651,255549
3,-60,-827,-4135,3586,255840
-146,411,-283,-4063,3536,255360
-90,122,1159,-4146,3635,255703
-47,-23,-659,-4152,3560,255752
-271,358,-99,-4132,3632,255464
-54,-52,1221,-4121,3663,255645
-212,44,-712,-4130,3541,255617
-158,188,700,-4176,3645,255273
-154,-132,926,-4074,3760,255757
-143,-169,-1030,-4112,3527,255537
-139,144,1124,-4095,3600,255409
-106,-200,108,-4214,3714,255996
-36,-257,-333,-4014,3534,255508
-185,161,718,-4067,3713,255640
-86,-344,112,-4176,3706,255728
-74,-246,-530,-4061,3359,255359
-161,153,897,-4140,3612,255626
96,-478,-40,-4123,3664,255765
-79,-261,-40,-4069,3440,255386
9,45,991,-4138,3653,255552
40,-437,-617,-4194,3678,255691
-101,-9,449,-4106,3478,255375
42,70,413,-4172,3761,255806
-209,-104,-874,-4080,3690,255660
8,128,467,-4121,3576,255368
-232,50,115,-4099,3616,255625
-94,-82,-573,-4097,3603,255409
-145,79,1095,-4190,3584,255517
-285,112,-221,-4141,3587,255722
-124,-8,22,-4052,3614,255512
-423,299,891,-4086,3557,255607
-208,264,-642,-4201,3706,255797
-338,130,302,-4066,3639,255414
-331,498,232,-4160,3584,255529
-256,331,-713,-4200,3722,255724
-369,193,438,-4101,3578,255412
-256,451,165,-4101,3499,255623
-376,244,-482,-4127,3637,255649
-234,240,896,-4029,3625,255425
-261,424,-95,-4114,3530,255687
-236,300,-263,-4164,3735,255511
-174,303,634,-4159,3513,255501
-196,356,-402,-4159,3572,255753
-104,329,63,-4102,3687,255552
-153,285,432,-4115,3560,255587
-54,248,-287,-4076,3502,255781
-77,307,425,-4068,3620,255601
-53,187,135,-4153,3578,255671
129,232,291,-4044,3633,255575
-2,157,168,-4038,3669,255551
121,329,461,-4150,3647,255578
76,199,-468,-4186,3664,255616
163,259,518,-4112,3585,255365
218,315,-129,-4193,3640,255753
169,141,-172,-4045,3600,255525
331,245,756,-4066,3526,255656
199,158,-573,-4028,3588,255651
420,192,708,-4050,3590,255290
243,110,-376,-4147,3606,255729
485,144,573,-4109,3572,255395
368,123,-37,-4083,3627,255689
394,94,508,-4118,3512,255529
462,121,316,-4058,3504,255659
216,30,-136,-4126,3557,255593
490,103,1050,-4105,3418,255524
201,-99,-220,-4229,3622,255823
303,-3,616,-4064,3529,255431
218,-73,-247,-4213,3615,255671
212,-172,789,-4060,3603,255398
289,-56,-964,-4153,3498,255554
-13,-77,999,-4148,3747,255515
460,-379,-191,-4173,3544,255759
-190,-87,-372,-4090,3553,255278
313,-112,1048,-4031,3687,255584
-91,-603,-913,-4134,3463,255671
-81,157,474,-4083,3530,255399
188,-329,52,-4142,3887,255976
-375,-470,-18,-4099,3470,255420
261,172,-128,-4093,3566,255440
-508,-467,787,-4098,3764,255604
156,-310,-554,-4204,3466,255553
-400,28,647,-4027,3663,255415
-124,-440,199,-4147,3674,255707
-16,-265,-142,-4084,3463,255425
-463,13,389,-4106,3598,255504
229,-329,-20,-4158,3744,255708
-638,-131,114,-4006,3523,255544
77,24,117,-4234,3706,255707
-506,-193,347,-4155,3662,255756
-89,-237,-112,-4152,3405,255533
-233,78,1003,-4064,3632,255529
-327,-282,-521,-4301,3490,255755
-27,0,685,-4139,3533,255359
-500,46,-193,-4145,3593,255679
-14,-71,-226,-4015,3532,255395
-463,171,374,-4108,3540,255484
-148,-111,-47,-4074,3654,255649
-261,35,259,-4051,3563,255485
-304,47,285,-4097,3657,255593
-82,-38,387,-4112,3491,255642
-365,-33,-150,-4159,3636,255638
-14,10,971,-4070,3566,255456
-328,-58,-336,-4216,3658,255719
-51,-148,777,-4057,3599,255390
-116,-118,474,-4132,3522,255697
-207,-55,-145,-4080,3626,255587
70,-110,690,-4108,3566,255600
-295,-88,-91,-4099,3485,255652
53,100,-142,-4064,3548,255470
-290,-125,174,-4105,3672,255539
-64,-15,-97,-4154,3481,255382
-113,143,-170,-4147,3586,255522
-267,23,449,-4149,3609,255522
153,95,-201,-4116,3531,255516
-333,355,194,-4118,3704,255421
220,252,188,-4167,3633,255658
-159,227,-58,-4108,3514,255601
72,480,387,-4104,3518,255563
79,390,106,-4121,3651,255637
-81,441,-105,-4178,3541,255521
275,640,387,-4175,3629,255653
-133,533,-315,-4133,3635,255710
313,543,71,-4167,3630,255445
59,464,480,-4081,3697,255605
241,339,-233,-4146,3640,255548
296,394,381,-4135,3613,255492
117,285,46,-4088,3487,255666
405,245,-14,-4107,3588,255570
127,308,105,-4101,3643,255571
433,150,-158,-4148,3593,255620
356,135,221,-4092,3563,255438
336,95,-167,-4095,3607,255553
463,54,580,-4169,3559,255500
266,-87,-377,-4170,3512,255575
477,141,667,-4136,3600,255455
270,31,-152,-4090,3734,255717
371,-37,33,-4053,3553,255365
258,233,483,-4155,3508,255599
175,21,-550,-4121,3636,255682
327,100,821,-4094,3511,255397
28,113,-549,-4137,3643,255781
318,134,798,-4049,3611,255392
-10,82,-537,-4179,3609,255612
173,288,907,-4144,3559,255377
96,138,-204,-4156,3649,255738
-21,166,342,-4141,3678,255406
75,416,615,-4089,3646,255559
-234,41,-891,-4122,3657,255600
33,404,1500,-4001,3510,255413
-319,121,-1539,-4236,3699,255894
-123,252,1474,-4029,3560,255361
-203,74,-1055,-4116,3546,255849
-387,177,1057,-4032,3502,255090
-47,150,-313,-4115,3523,255739
-645,-14,586,-4100,3609,255482
17,256,676,-4127,3492,255694
-669,-139,-717,-4139,3818,255719
-160,261,1523,-4041,3512,255349
-373,-160,-1549,-4162,3683,255837
-513,76,1496,-3925,3516,255253
75,-45,-1039,-4311,3692,256112
-829,-107,624,-4064,3697,255344
310,92,-252,-4168,3612,255710
-838,-211,2,-4070,3747,255557
227,-19,289,-4138,3369,255497
-486,-134,-253,-4109,3629,255769
-250,-162,464,-4140,3507,255647
73,-225,-370,-4175,3612,255634
-705,-208,822,-4083,3593,255504
577,-232,-292,-4175,3563,255639
-871,-191,913,-4036,3604,255495
576,-198,-126,-4277,3530,255716
-661,-185,592,-3960,3623,255490
162,-248,-181,-4122,3563,255585
-9,-167,672,-4047,3547,255456
-300,-266,-2,-4188,3559,255708
580,-191,489,-4201,3498,255442
-707,-243,196,-4224,3619,255590
651,-337,-103,-4221,3658,255499
-617,-197,691,-4106,3564,255516
387,-274,-198,-4127,3653,255722
0,-165,725,-4055,3623,255569
-152,-169,-399,-4239,3642,255585
464,-126,446,-4074,3718,255381
-624,-293,-509,-4250,3536,255568
541,-104,518,-4149,3610,255444
-527,-213,-93,-4101,3638,255663
271,-169,265,-4108,3536,255452
-42,109,312,-4133,3655,255546
-217,-204,-428,-4140,3552,255405
391,157,613,-4055,3547,255381
-543,-67,-381,-4159,3641,255764
499,-10,465,-4038,3650,255578
-348,51,-129,-4156,3599,255717
202,-29,224,-4108,3557,255499
100,139,115,-4064,3669,255566
-240,19,169,-4122,3589,255529
510,182,144,-4132,3680,255598
-355,105,-7,-4077,3627,255624
579,88,216,-4069,3508,255494
-199,194,-23,-4137,3610,255651
194,-9,157,-4135,3412,255548
145,180,176,-4120,3620,255714
-114,117,155,-4088,3577,255512
591,124,156,-4169,3606,255563
-166,377,156,-4101,3588,255612
560,157,-7,-4102,3593,255494
-157,334,173,-4037,3700,255666
177,276,-23,-4094,3615,255702
202,213,310,-4068,3681,255688
19,429,97,-4115,3444,255621
522,267,504,-4118,3640,255616
-92,399,70,-4159,3646,255713
421,312,242,-4109,3526,255524
-60,331,113,-4133,3709,255696
229,367,-28,-4080,3588,255609
249,209,455,-4095,3603,255615
50,336,-171,-4124,3547,255685
337,192,338,-4117,3629,255566
-136,233,-152,-4185,3627,255682
225,249,132,-4141,3579,255398
-31,97,66,-4127,3676,255650
127,283,142,-4086,3552,255573
170,115,223,-4082,3577,255643
-108,310,-179,-4090,3607,255580
139,266,-48,-4164,3653,255524
-197,224,-261,-4121,3624,255593
66,401,227,-4107,3584,255457
-50,176,190,-4185,3656,255667
-97,332,317,-4067,3547,255407
-7,208,348,-4125,3630,255522
-335,254,145,-4082,3655,255608
-56,295,115,-4098,3635,255549
-311,229,329,-4079,3612,255630
-180,310,-238,-4109,3533,255534
-232,251,214,-4126,3605,255557
-405,267,188,-4034,3605,255674
-262,61,-81,-4171,3521,255544
-565,196,695,-4127,3621,255616
-305,-40,30,-4129,3695,255721
-465,0,310,-4119,3530,255386
-407,152,315,-4105,3666,255554
-359,-238,-193,-4129,3648,255568
-511,113,378,-4131,3567,255498
-303,-114,232,-4155,3697,255691
-405,-153,-125,-4085,3521,255511
-234,44,543,-4073,3584,255597
-228,-257,-56,-4095,3608,255701
-242,-75,8,-4122,3482,255488
-128,-153,438,-4104,3569,255609
-210,-268,-394,-4088,3557,255583
-110,-87,334,-4153,3635,255463
-135,-217,51,-4216,3626,255711
-86,-248,-66,-4140,3589,255552
21,-167,598,-4146,3578,255537
-101,-326,-158,-4174,3613,255719
101,-196,107,-4106,3604,255566
16,-235,363,-4161,3590,255574
93,-344,-293,-4186,3584,255558
95,-104,343,-4293,3614,255379
28,-284,60,-4117,3687,255652
262,-198,-204,-4086,3617,255540
91,-105,616,-4072,3668,255574
304,-371,-35,-4116,3685,255619
215,-82,238,-4046,3536,255463
233,-227,693,-4068,3669,255714
310,-209,-173,-4122,3616,255569
143,9,346,-4089,3621,255557
345,-136,584,-4205,3647,255696
158,10,-327,-4168,3590,255503
250,109,388,-4155,3626,255452
223,-34,309,-4113,3628,255768
168,-108,-336,-4032,3483,255454
210,47,751,-4033,3659,255575
55,-281,-96,-4104,3597,255774
169,-59,-134,-4121,3463,255468
57,124,752,-4094,3596,255569
129,-302,-189,-4072,3564,255637
25,98,230,-4043,3490,255424
-79,-80,259,-4147,3744,255833
177,-251,-101,-4130,3563,255524
7,56,663,-4122,3648,255456
157,-321,288,-4202,3747,255710
-30,-107,-380,-4106,3554,255509
-49,-19,330,-4059,3695,255562
106,-270,-19,-4139,3630,255599
-83,-27,24,-4150,3523,255472
31,-203,449,-4114,3581,255647
-212,-166,-341,-4140,3515,255675
-57,-100,-27,-4100,3631,255445
-89,-246,288,-4187,3507,255478
-120,-105,-14,-4144,3516,255578
-19,-214,14,-4097,3646,255534
-147,-69,-4,-4127,3600,255562
207,73,-73,-4132,3669,255594
93,-35,363,-4102,3627,255544
150,131,296,-4089,3583,255627
142,29,-470,-4117,3722,255647
199,137,377,-4126,3545,255464
479,408,601,-4068,3601,255657
-89,124,-614,-4053,3633,255490
347,54,561,-4170,3690,255457
212,298,809,-4036,3498,255708
65,265,-539,-4094,3642,255686
173,249,761,-4199,3747,255497
55,234,-15,-4164,3481,255712
212,426,0,-4151,3638,255476
-1,318,819,-4138,3699,255611
82,163,-537,-4059,3514,255637
63,697,241,-4057,3593,255502
55,357,763,-4081,3770,255630
36,203,-738,-4129,3542,255528
-125,679,375,-4179,3655,255416
20,197,1041,-4155,3698,255727
-174,112,-802,-4096,3482,255561
-202,560,821,-4056,3618,255404
-143,39,625,-4211,3720,255857
-318,-17,-550,-4117,3463,255429
-293,474,1212,-4128,3607,255335
-311,-96,293,-4126,3762,255826
-286,92,-10,-4000,3382,255351
-368,546,1176,-4145,3737,255508
-375,-36,-407,-4151,3655,255724
-271,452,-244,-4141,3452,255203
-437,569,1369,-4069,3759,255569
-323,-120,-1251,-4080,3679,255609
-460,608,86,-4073,3436,255225
-258,313,1534,-4123,3867,255810
-324,-222,-1073,-4165,3517,255620
-436,578,825,-4072,3511,255267
-232,34,469,-4140,3812,255911
-152,-78,-814,-4110,3363,255374
-208,458,1467,-4085,3596,255371
-330,-269,-700,-4182,3715,255838
-76,-95,-572,-4118,3417,255155
-140,188,2136,-4104,3703,255598
-73,-527,-1057,-4097,3714,255952
-161,-49,232,-4027,3530,255230
-183,-89,1224,-4151,3780,255843
124,-519,-1388,-4148,3456,255638
-172,52,1147,-4013,3542,255131
-68,-339,-41,-4134,3601,255944
-33,-328,-1203,-4091,3429,255475
56,124,2036,-4079,3626,255403
96,-262,-897,-4141,3579,255898
-15,129,-843,-4035,3581,255398
205,192,1731,-4108,3830,255639
134,-173,-1491,-4130,3488,255775
94,217,340,-4034,3641,255230
129,-36,823,-4186,3570,255813
254,-35,-1308,-4178,3422,255514
223,224,1371,-3987,3698,255196
136,-195,-351,-4142,3648,255802
291,159,-1225,-4121,3550,255343
220,130,1801,-4119,3781,255547
281,-202,-1262,-4084,3612,255751
169,398,-1053,-4167,3569,255302
232,150,1797,-4116,3853,255704
301,-25,-1935,-4152,3421,255737
7,662,-452,-4060,3619,255226
239,92,1280,-4143,3770,255843
84,-459,-1998,-4063,3339,255523
-141,95,749,-4091,3603,255116
38,-595,124,-4181,3757,255911
25,-227,-1534,-4097,3416,255341
-103,265,1769,-4073,3766,255425
-102,-418,-977,-4210,3682,256110
-9,209,-1141,-4119,3338,255218
-71,378,2430,-4160,3835,255627
-3,-428,-1572,-4189,3507,255920
-53,519,-403,-4038,3467,255068
-3,371,2253,-4128,3829,255858
84,-226,-1969,-4184,3473,255757
-110,804,719,-4053,3511,254930
-13,365,1306,-4184,3936,255964
-57,-39,-2079,-4171,3495,255577
-191,782,1713,-4070,3671,255178
-147,157,271,-4301,3888,256153
11,18,-1221,-4093,3429,255503
-233,707,2720,-4088,3568,255513
-104,39,-484,-4147,3692,256105
12,233,-321,-3932,3389,255178
-183,875,2662,-4129,3658,255651
-26,129,-1773,-4187,3745,256001
-130,578,142,-4008,3506,254942
-75,790,2405,-4203,3777,255809
-88,-61,-2180,-4203,3699,255746
-88,700,1045,-4116,3457,255061
25,527,1869,-4193,3800,256006
-77,-71,-2280,-4168,3527,255759
-118,844,1586,-4086,3523,255204
-54,398,737,-4242,3731,256069
-17,61,-2004,-4110,3463,255277
-190,880,1936,-4062,3657,255107
50,26,-18,-4140,3789,256082
-24,8,-1185,-4037,3483,255261
-149,719,2246,-4121,3597,255431
85,-176,-494,-4215,3802,256045
-110,149,-626,-4085,3440,255193
-106,795,1854,-4166,3753,255723
42,-155,-1187,-4216,3918,256038
-144,321,-56,-4063,3312,254977
-47,709,1560,-4108,3737,255719
76,-329,-1067,-4076,3685,255723
-80,356,769,-4050,3238,254972
-44,512,1027,-4130,3793,255865
131,-431,-894,-4059,3637,255646
-102,416,1090,-4099,3371,255170
-24,295,438,-4191,3917,256007
128,-529,-508,-4122,3628,255607
-136,402,951,-4107,3393,255355
44,71,15,-4213,3853,255900
84,-589,-49,-3961,3609,255466
-109,223,616,-4043,3358,255400
64,-255,-212,-4207,3800,255777
61,-751,517,-3974,3514,255359
-161,37,81,-4239,3382,255528
-31,-373,-152,-4191,3846,255722
-3,-750,891,-4047,3530,255536
-281,-40,-521,-4123,3444,255667
-106,-380,-22,-4050,3949,255646
-108,-784,900,-4168,3479,255539
-312,-128,-878,-4137,3470,255574
-145,-480,556,-4108,3993,255505
-63,-856,795,-3945,3490,255613
-212,-145,-1134,-4109,3542,255529
-211,-371,954,-4116,3901,255551
-13,-810,355,-4101,3494,255785
-243,-123,-1103,-4138,3462,255415
-145,-391,1484,-4201,3865,255615
36,-899,-93,-4210,3439,255735
-249,-93,-976,-4052,3394,255338
-79,-320,1642,-4071,3900,255688
56,-892,-803,-4144,3400,255805
-152,57,-848,-4011,3451,255172
-48,-308,1531,-4155,3905,255714
157,-958,-1127,-4082,3422,255700
-124,60,-315,-4057,3472,255179
-42,-445,1689,-4223,3979,255993
216,-1085,-923,-4137,3431,255729
-240,196,87,-4088,3389,255330
64,-379,1490,-4210,3929,255882
183,-965,-1212,-4048,3316,255708
-180,426,295,-4116,3426,255213
254,-473,1073,-4172,3883,255952
173,-888,-810,-4000,3241,255412
51,456,835,-4088,3378,255156
197,-499,493,-4149,3940,256086
311,-692,-365,-4053,3232,255422
120,580,830,-4028,3516,255483
266,-418,-119,-4216,4072,255991
370,-382,-122,-4040,3418,255348
123,632,695,-4074,3633,255620
383,-377,-246,-4213,4005,255854
379,-129,284,-4011,3235,255201
238,680,358,-4104,3580,255603
445,-246,-508,-4171,3782,255655
360,181,492,-4149,3232,255206
351,715,-31,-4184,3658,255724
344,-116,-455,-4101,3767,255579
284,506,773,-4073,3384,255403
286,711,-307,-4099,3812,255889
311,331,-357,-4128,3723,255548
145,995,789,-4141,3404,255430
110,534,-629,-4193,3805,255858
62,74,261,-4042,3504,255255
-48,940,1203,-4149,3496,255672
-8,455,-379,-4144,3799,255808
-48,385,673,-4043,3520,255229
-55,1566,680,-4178,3477,255645
-332,1404,-1291,-4151,3893,255736
-263,139,487,-4159,3717,255467
-104,515,603,-4012,3015,255529
-372,1346,-380,-4178,3700,255615
-111,592,837,-4128,3894,255539
-270,732,-229,-4081,3281,255443
-457,1063,-471,-4155,3836,255432
-460,309,614,-4023,3889,255524
-660,-149,-228,-4122,3400,255515
-503,622,364,-4087,3498,255447
-634,22,-88,-4140,3869,255835
-562,-532,134,-4082,3452,255463
-475,-96,874,-4066,3422,255529
-622,-130,-482,-4170,3701,255633
-224,6,245,-4076,3628,255256
-438,250,176,-4047,3684,255671
-112,400,-956,-4090,3708,255608
-76,430,324,-4049,3704,255550
-16,242,241,-4158,3632,255647
248,493,-821,-4089,3594,255539
-43,287,1293,-4071,3784,255606
391,-261,-314,-4203,3456,255736
159,328,-127,-4039,3472,255232
316,100,1178,-4077,3843,255624
436,-398,-825,-4102,3515,255574
144,407,506,-3961,3596,255328
434,52,285,-4197,3866,255876
191,-121,-461,-4099,3507,255543
411,385,1023,-4086,3581,255497
91,-102,-71,-4135,3724,255734
320,148,-236,-4143,3452,255437
173,184,1216,-4168,3654,255607
131,-120,-763,-4186,3648,255747
142,278,602,-4068,3717,255449
-84,-174,201,-4107,3721,255698
144,-80,-214,-4142,3499,255552
-165,-22,670,-4149,3595,255570
15,-424,-251,-4167,3552,255609
-135,-118,231,-4135,3529,255397
-160,-391,275,-4143,3657,255614
-25,-573,-132,-4051,3573,255560
-210,-185,654,-4069,3573,255587
-210,-410,180,-4115,3746,255734
-225,-250,-442,-4164,3581,255638
-159,-38,1116,-3994,3588,255758
-154,-519,-596,-4211,3657,255743
-187,-200,402,-4031,3528,255283
-177,-537,481,-4160,3651,255626
-214,-637,-178,-4102,3506,255564
-133,-368,991,-4015,3545,255472
-277,-669,151,-4207,3649,255855
-55,-344,-72,-4143,3557,255486
-174,-24,992,-4080,3739,255608
-160,-329,-599,-4094,3628,255681
-46,35,31,-4104,3514,255339
-142,-85,913,-4178,3689,255702
109,-380,-667,-4148,3490,255596
-217,264,473,-4037,3538,255393
145,-257,711,-4102,3729,255668
-42,-227,-614,-4033,3553,255620
35,493,411,-4159,3655,255431
149,-219,436,-4125,3785,255783
61,-27,-1040,-4077,3327,255390
208,390,1249,-4044,3670,255573
128,-406,-368,-4117,3675,256009
203,243,-696,-4075,3321,255395
165,413,1215,-4070,3794,255769
164,-257,-929,-4146,3569,255919
205,542,-298,-4013,3441,255124
151,220,1461,-4110,3775,255714
293,-186,-1121,-4209,3467,255562
76,561,354,-4045,3544,255047
174,82,1293,-4133,3838,255748
167,-91,-1508,-4184,3439,255448
29,568,1247,-4047,3666,255293
229,-103,261,-4178,3893,256067
99,4,-1183,-4036,3420,255386
176,654,1594,-3987,3671,255482
83,-134,-652,-4111,3756,255918
152,173,-536,-4079,3404,255206
-61,551,1213,-4149,3738,255725
29,-125,-1456,-4190,3676,255741
25,228,165,-4109,3540,255233
-172,293,1010,-4158,3633,255885
166,-320,-919,-4152,3637,255751
-224,113,1372,-4100,3521,255283
-152,161,265,-4213,3723,255839
-164,-43,-600,-4116,3749,255414
-317,323,970,-4100,3528,255304
-192,298,-456,-4136,3678,255694
-319,97,-362,-4064,3580,255370
-176,171,1407,-4097,3465,255361
-316,197,-675,-4084,3623,255664
-191,139,490,-4112,3691,255397
-268,269,886,-4218,3543,255670
-218,325,-723,-4157,3649,255713
-221,303,471,-4065,3646,255476
-250,288,406,-4113,3526,255777
-194,290,-668,-4146,3587,255608
-182,169,1042,-4157,3655,255443
-172,251,328,-4119,3552,255744
-173,168,-431,-4148,3687,255526
-137,226,1010,-4076,3622,255399
-141,248,57,-4162,3500,255668
-81,108,-347,-4126,3561,255442
-50,209,1099,-4080,3522,255594
-89,-58,-728,-4150,3646,255593
32,28,301,-4105,3578,255408
-70,-10,1068,-4132,3643,255712
-23,-177,-282,-4216,3557,255508
-50,48,646,-4081,3530,255316
-108,76,500,-4041,3657,255691
89,-39,-938,-4055,3630,255528
-85,240,745,-4099,3634,255369
131,-151,-203,-4137,3697,255800
-6,-100,-488,-4069,3574,255525
109,116,1270,-4079,3571,255548
87,-224,-606,-4160,3582,255895
-1,32,236,-4041,3525,255373
105,16,747,-4064,3594,255696
3,-175,-724,-4105,3607,255587
188,184,922,-4020,3544,255353
-48,-14,261,-4074,3603,255811
90,86,-296,-4106,3626,255561
3,166,837,-4129,3630,255508
-44,-40,-176,-4137,3686,255653
195,10,-69,-4138,3560,255460
-132,-60,731,-4134,3514,255513
230,-163,-286,-4140,3534,255521
-50,-181,462,-3926,3591,255449
17,-192,392,-4180,3590,255594
5,-185,-206,-4068,3662,255520
-83,-190,-50,-4103,3532,255477
101,-137,-75,-4189,3555,255557
-40,-277,-246,-4081,3621,255434
91,-354,246,-4099,3499,255482
35,-321,271,-4085,3593,255522
76,-367,86,-3997,3580,255600
29,-270,312,-4089,3568,255508
-75,-171,-86,-4105,3649,255658
-50,-151,-119,-4206,3694,255557
-40,-148,-39,-4116,3504,255557
-43,-40,347,-4126,3588,255509
-35,-248,-112,-4183,3602,255571
-9,-33,505,-4016,3469,255560
-29,28,112,-4104,3579,255693
-37,-128,25,-4068,3582,255501
0,161,351,-4134,3540,255566
-70,32,-324,-4166,3659,255671
157,-7,233,-4150,3537,255463
-112,303,387,-4112,3513,255618
117,62,-111,-4148,3730,255642
-8,236,357,-4115,3554,255531
-3,402,-142,-4128,3603,255679
133,146,-390,-4072,3655,255457
-55,276,312,-4157,3572,255486
140,210,-390,-4097,3637,255630
59,-18,108,-4048,3621,255472
96,133,480,-4095,3546,255508
118,-2,-27,-4109,3665,255676
22,28,553,-4060,3524,255501
162,64,214,-4115,3499,255617
-3,78,-278,-4121,3657,255615
135,240,464,-4123,3605,255557
-15,168,-203,-4178,3622,255534
68,136,79,-4129,3624,255498
6,277,275,-4036,3535,255576
14,170,-82,-4162,3634,255559
95,189,576,-4109,3527,255570
7,318,13,-4097,3544,255698
101,305,150,-4131,3627,255499
-4,259,297,-4098,3613,255541
3,305,93,-4143,3510,255553
32,286,435,-4139,3603,255497
-88,246,115,-4194,3606,255595
48,412,126,-4103,3554,255454
-114,371,327,-4106,3663,255558
19,266,-199,-4157,3554,255577
-80,417,369,-4073,3558,255551
-51,174,270,-4054,3625,255759
-5,155,108,-4061,3521,255556
-139,299,621,-4110,3640,255564
-85,90,-107,-4165,3717,255556
-179,161,295,-4101,3586,255518
-207,131,435,-4088,3648,255695
-136,-74,-284,-4110,3624,255674
-290,-7,298,-4025,3509,255458
-213,-238,15,-4208,3593,255478
-256,-280,-143,-4103,3578,255525
-264,-111,520,-4064,3654,255659
-296,-408,34,-4095,3713,255825
-269,-384,338,-4172,3588,255557
-330,-244,780,-4192,3603,255647
-272,-418,-63,-4197,3610,255540
-213,204,559,-4147,3489,255452
-311,244,78,-4090,3660,255616
-206,-63,-308,-4137,3655,255517
-304,220,597,-4101,3493,255418
-233,214,-54,-4117,3595,255639
-271,93,194,-4100,3616,255551
-235,314,227,-4164,3580,255550
-170,329,-190,-4031,3688,255611
-236,271,-116,-4162,3656,255442
-133,285,79,-4223,3526,255521
-147,180,-32,-4155,3626,255648
-90,141,124,-4226,3602,255598
41,107,235,-4101,3610,255636
-38,100,-200,-4052,3662,255593
136,48,237,-4091,3561,255547
104,2,-175,-4076,3642,255664
122,-49,-47,-4133,3605,255449
207,-91,-112,-4122,3585,255557
163,-169,89,-4092,3588,255459
283,-178,6,-4126,3528,255571
231,-225,67,-4165,3595,255643
320,-180,289,-4161,3583,255609
347,-103,-195,-4134,3691,255603
384,-84,358,-4048,3671,255534
473,-82,-70,-4117,3581,255544
384,15,65,-4079,3617,255563
555,-87,105,-4108,3650,255648
467,-7,-45,-4115,3563,255461
628,-35,4,-4123,3671,255522
531,-17,436,-4055,3620,255513
521,7,-132,-4127,3569,255605
497,41,553,-4174,3563,255634
390,61,-42,-4173,3602,255587
476,140,121,-4091,3611,255518
290,128,68,-4084,3570,255543
328,138,3,-4151,3589,255522
254,58,129,-4139,3597,255537
135,186,248,-4082,3512,255547
178,143,90,-4127,3646,255506
-32,168,61,-4032,3559,255508
75,183,236,-4079,3629,255536
-58,19,24,-4069,3664,255527
-24,52,423,-4080,3557,255444
-66,-44,130,-4170,3605,255676
-89,-5,200,-4100,3625,255566
-72,52,-26,-4075,3656,255647
-139,4,36,-4079,3607,255566
-19,-60,-70,-4075,3606,255630
-127,-108,317,-4136,3636,255481
-3,-151,206,-4139,3520,255480
-191,-76,261,-4037,3623,255552
-203,-3,24,-4085,3650,255516
-305,20,-165,-4101,3647,255556
-389,95,-129,-4176,3560,255500
-313,6,30,-4184,3643,255543
-458,-11,231,-4118,3568,255548
-295,-44,473,-4103,3547,255562
-476,44,492,-4005,3543,255584
-374,107,188,-4127,3657,255641
-447,206,277,-4132,3640,255590
-487,251,-146,-4094,3630,255624
-412,251,134,-4045,3684,255480
-483,240,236,-4114,3589,255571
-354,170,406,-4134,3649,255580
-392,208,487,-4147,3634,255451
-374,251,455,-4172,3640,255564
-344,267,214,-4166,3604,255578
-453,232,176,-4130,3656,255579
-349,198,239,-4183,3623,255434
-355,240,212,-4085,3502,255649
-210,1199,296,-4054,3508,255500
-297,262,-754,-4044,3786,255595
-261,-506,-29,-4102,3438,255449
-518,394,775,-4098,3339,255532
-405,-25,-302,-4201,3783,255787
-298,-346,506,-4117,3456,255377
-520,343,165,-4145,3481,255601
-272,41,17,-4099,3812,255698
-402,-174,547,-4036,3466,255558
-324,385,426,-4068,3471,255573
-148,56,-16,-4079,3792,255749
-321,204,640,-4057,3595,255516
-37,449,-84,-4127,3580,255594
-286,182,-49,-3978,3728,255576
-27,57,698,-4097,3534,255561
-100,190,-24,-4178,3578,255520
-121,259,267,-4114,3651,255504
-20,219,12,-4125,3561,255718
-178,603,-65,-4097,3654,255634
69,415,-309,-4154,3722,255643
-169,192,298,-4169,3563,255516
185,224,138,-4122,3426,255463
55,174,348,-4071,3670,255603
165,95,213,-4062,3593,255644
267,246,176,-4086,3592,255516
220,193,303,-4081,3554,255514
480,269,-3,-4112,3596,255565
331,156,114,-4064,3646,255518
578,100,127,-4120,3606,255539
434,130,279,-4042,3630,255590
519,-42,-101,-4138,3585,255553
488,-40,345,-4105,3577,255484
434,-63,5,-4060,3632,255501
515,3,21,-4104,3595,255439
342,-58,59,-4107,3625,255607
486,-73,-55,-4087,3563,255660
358,-72,78,-4025,3680,255549
395,-200,-44,-4066,3672,255568
405,-236,5,-4048,3581,255623
336,-221,-3,-4115,3505,255600
352,-254,95,-4184,3578,255494
244,-175,-136,-4178,3601,255575
256,-69,-15,-4116,3638,255561
157,-93,-71,-4152,3733,255669
116,-265,74,-4118,3638,255535
36,-1007,516,-4157,3558,255530
63,-1058,815,-4178,3438,255611
152,-492,720,-4043,3488,255394
55,-390,529,-4072,3881,255570
195,-502,620,-4106,3626,255564
89,-100,295,-4120,3502,255596
109,-100,192,-4177,3732,255668
126,-245,244,-4148,3632,255464
73,32,52,-4087,3563,255433
82,30,-27,-4098,3642,255604
20,-4,-80,-4082,3661,255551
10,165,-42,-4032,3516,255502
-15,121,-210,-4106,3639,255496
-23,114,-120,-4125,3643,255546
-9,175,-260,-4163,3626,255516
-81,137,-252,-4096,3664,255567
-43,124,-205,-4106,3576,255539
-123,154,-247,-4139,3527,255643
-143,157,-191,-4114,3611,255656
-171,61,-75,-4088,3535,255545
-232,116,11,-4111,3555,255567
-216,13,133,-4106,3679,255654
-322,8,305,-4071,3544,255621
-296,96,348,-4100,3581,255665
-365,39,266,-4146,3691,255554
-344,111,134,-4162,3585,255516
-376,142,-7,-4130,3566,255628
-391,80,49,-4148,3613,255558
-357,52,180,-4077,3645,255487
-365,52,271,-4147,3554,255579
-301,26,448,-4090,3619,255563
-292,65,505,-4162,3593,255666
-291,186,403,-4184,3643,255544
-299,275,242,-4097,3682,255537
-312,272,181,-4149,3567,255533
-332,313,76,-4156,3598,255584
-354,331,216,-4112,3681,255659
-304,271,193,-4079,3621,255633
-290,284,251,-4149,3546,255601
-254,355,254,-4126,3585,255551
-238,307,274,-4164,3627,255663
-251,267,279,-4104,3581,255604
-208,270,271,-4120,3555,255471
-204,241,130,-4123,3573,255454
-160,241,58,-4064,3630,255458
-124,266,-42,-4050,3612,255530
-84,247,-76,-4138,3554,255544
-40,181,174,-4148,3638,255640
-134,81,92,-4121,3636,255595
8,-89,36,-4232,3608,255551
108,36,489,-4106,3556,255552
97,187,226,-4094,3636,255629
196,227,165,-4113,3650,255517
209,330,201,-4145,3590,255451
264,332,31,-4120,3614,255541
338,261,0,-4156,3577,255552
333,292,115,-4119,3555,255517
404,258,-47,-4019,3615,255622
408,170,259,-4091,3610,255553
445,153,401,-4044,3571,255555
455,132,389,-4076,3522,255550
424,129,518,-4150,3586,255668
430,221,296,-4199,3633,255629
355,272,123,-4136,3672,255623
389,258,153,-4119,3628,255601
370,155,105,-4101,3611,255579
390,105,132,-4051,3597,255562
376,65,252,-4111,3562,255520
321,24,63,-4128,3578,255636
298,78,41,-4132,3636,255635
190,117,9,-4088,3661,255659
137,136,-94,-4107,3609,255576
75,131,394,-4134,3604,255479
32,11,-53,-4150,3590,255591
-54,77,489,-4149,3562,255445
-28,-27,492,-4122,3686,255608
-148,-35,21,-4019,3638,255565
-165,71,345,-4116,3647,255490
-277,32,-168,-4086,3638,255616
-283,24,-354,-4169,3543,255429
-344,110,147,-4153,3609,255579
-364,-96,-271,-4108,3599,255757
-326,-44,-393,-4144,3470,255533
-383,-25,708,-4054,3626,255619
-311,-372,-238,-4149,3641,255673
-380,-101,-30,-4062,3559,255476
-267,-182,1031,-4122,3712,255769
-335,-356,-697,-4061,3547,255638
-321,53,141,-4068,3593,255426
-260,-152,491,-4113,3645,255707
-272,-314,-951,-4095,3519,255417
-341,76,469,-4085,3536,255342
-222,-419,387,-4110,3641,255792
-251,-387,-781,-4060,3423,255511
-329,-12,944,-4127,3681,255373
-241,-509,-13,-4178,3732,255790
-260,-236,-625,-4174,3468,255421
-247,-61,1358,-4144,3700,255572
-230,-517,-496,-4226,3596,255836
-198,-114,-282,-4133,3437,255428
-287,-42,1389,-4133,3775,255610
-167,-660,-731,-4185,3608,255741
-291,4,-57,-3960,3464,255223
-191,-93,1396,-4169,3795,255708
-204,-625,-1269,-4152,3568,255648
-267,176,261,-4074,3468,255148
-99,-162,1041,-4138,3809,255870
-121,-579,-1228,-4099,3451,255576
-181,248,849,-4071,3572,255341
7,-274,698,-4215,3808,255987
-76,-490,-975,-4109,3394,255437
-84,275,1229,-4128,3568,255368
58,-282,310,-4181,3742,255856
-24,-175,-937,-4025,3450,255223
-36,505,1110,-4062,3673,255447
86,-116,-482,-4104,3759,255876
88,82,-476,-4105,3402,255288
28,502,1209,-4141,3677,255553
255,-220,-298,-4157,3688,255894
175,220,106,-4075,3415,255302
129,544,1072,-4272,3723,255693
318,-68,-573,-4240,3671,255690
107,480,126,-4124,3367,255124
147,674,532,-4220,3722,255603
237,-10,-611,-4101,3648,255610
149,548,391,-4096,3301,255234
225,542,633,-4199,3700,255756
260,-88,-113,-4108,3560,255736
275,563,636,-4128,3355,255343
191,545,412,-4239,3831,255869
304,4,-47,-4109,3587,255606
127,725,191,-4070,3472,255475
177,564,152,-4116,3951,255675
258,3,160,-4041,3590,255485
49,654,-45,-4050,3435,255443
251,471,229,-4091,3808,255793
175,9,224,-3955,3494,255631
120,636,-187,-4137,3437,255456
215,476,151,-4133,3819,255579
156,68,223,-4088,3590,255582
109,701,-388,-4128,3419,255402
115,529,163,-4174,3793,255597
189,124,232,-4141,3598,255614
54,642,-389,-4050,3525,255580
133,409,425,-4081,3881,255635
147,18,211,-4108,3560,255584
19,526,-418,-4061,3497,255508
102,340,468,-4069,3793,255535
59,50,33,-4077,3542,255691
37,538,-307,-4116,3531,255532
39,266,493,-4125,3764,255749
-25,-8,-51,-4138,3517,255743
-150,367,-31,-4136,3538,255473
-193,32,463,-4139,3771,255644
-28,-226,83,-4160,3499,255591
11,188,179,-4093,3488,255518
119,-48,403,-4093,3898,255640
142,-279,-213,-4095,3543,255612
-30,14,73,-4093,3532,255535
-35,-360,47,-4178,3787,255721
-88,-548,-271,-4077,3546,255630
-214,-246,287,-4112,3542,255612
-237,-670,79,-4117,3678,255776
-139,-711,206,-4099,3465,255552
-210,-319,451,-4064,3527,255591
-41,-644,508,-4067,3633,255629
-86,-443,294,-4122,3396,255425
-108,26,468,-4170,3651,255506
5,-335,72,-4111,3706,255694
-74,-189,-124,-4046,3454,255483
44,126,-311,-4082,3656,255517
-38,-284,-305,-4106,3743,255629
-62,-273,-50,-4167,3456,255459
-139,-36,176,-4097,3639,255651
-136,-453,735,-4191,3689,255533
-95,-381,545,-4100,3471,255639
-141,-72,367,-4108,3628,255610
36,-406,491,-4126,3725,255643
-57,-258,-14,-4061,3429,255516
-116,22,334,-4105,3648,255619
-26,-337,168,-4142,3700,255613
-124,-44,-116,-4165,3518,255475
15,-8,432,-4146,3754,255630
-87,-339,-112,-4052,3593,255610
-61,27,56,-4093,3462,255444
-132,-68,732,-4160,3729,255759
-75,-362,-3,-4158,3580,255687
30,154,250,-4085,3551,255511
125,9,666,-4139,3751,255712
187,-98,-568,-4072,3525,255628
42,432,110,-4084,3589,255458
53,105,502,-4124,3749,255760
-90,-24,-481,-4154,3466,255615
-247,407,650,-4087,3621,255476
-207,-61,544,-4124,3811,255837
-316,13,-485,-4094,3498,255469
-362,465,568,-4112,3648,255496
-287,-87,300,-4133,3709,255905
-251,101,-327,-3997,3390,255556
-287,401,736,-4095,3677,255632
-164,-193,-112,-4162,3731,255661
-154,116,-72,-4073,3402,255260
-134,387,648,-4140,3648,255616
-28,2,-346,-4139,3659,255834
-176,411,122,-4112,3501,255445
-176,541,724,-4156,3676,255834
-197,226,-87,-4163,3643,255609
-204,570,637,-4081,3592,255450
-189,643,409,-4073,3765,255668
-120,456,-402,-4118,3694,255545
-67,736,315,-4101,3596,255451
-71,678,-263,-4102,3655,255614
104,481,-217,-4153,3609,255417
69,614,414,-4072,3472,255465
86,612,-303,-4048,3671,255630
40,579,-56,-4102,3674,255461
-71,643,267,-4082,3609,255583
-19,600,-411,-4107,3633,255636
-99,598,206,-4111,3561,255581
-87,643,241,-4087,3588,255651
-118,578,-239,-4130,3685,255461
-170,587,435,-4065,3644,255462
-115,545,4,-4101,3541,255643
-66,469,-172,-4090,3621,255573
60,446,521,-4082,3649,255533
81,431,-204,-4034,3641,255634
154,353,60,-4064,3648,255550
134,257,558,-4091,3658,255565
143,232,-297,-4090,3604,255568
77,204,194,-4157,3656,255528
34,36,316,-4164,3577,255744
2,5,-185,-4096,3555,255662
-73,-74,544,-4178,3615,255532
-12,-248,333,-4125,3544,255619
25,-174,-89,-4086,3563,255522
100,-132,480,-4063,3712,255656
220,-313,-12,-4141,3547,255616
274,-255,-138,-4075,3499,255416
353,-219,339,-4114,3573,255586
380,-431,-286,-4107,3586,255620
405,-358,-6,-4098,3543,255527
378,-356,433,-4097,3622,255552
407,-589,-38,-4117,3568,255636
364,-527,569,-4106,3561,255459
292,-480,500,-4066,3569,255624
313,-596,-143,-4087,3659,255555
218,-535,329,-4092,3502,255560
192,-590,108,-4146,3609,255708
170,-764,-92,-4152,3672,255466
155,-750,624,-4146,3623,255472
193,-801,129,-4076,3577,255766
193,-808,-99,-4048,3600,255528
215,-709,418,-4052,3630,255595
212,-798,-109,-4121,3577,255626
211,-730,155,-4092,3462,255472
71,-556,445,-4074,3538,255698
-32,-568,-86,-4133,3569,255637
-123,-420,192,-4157,3603,255523
-263,-297,211,-4084,3716,255639
-243,-349,-166,-4150,3680,255622
-291,-208,373,-4148,3591,255522
-251,-202,363,-4105,3570,255579
-192,-304,175,-4080,3586,255509
-218,-97,681,-4163,3548,255474
-180,-57,303,-4097,3622,255575
-225,-45,65,-4048,3613,255554
-226,138,337,-4172,3603,255509
-284,150,-155,-4143,3611,255653
-252,114,17,-4180,3633,255561
-267,138,383,-4164,3603,255718
-239,95,-50,-4088,3551,255730
-194,121,221,-4139,3609,255442
-255,178,339,-4180,3564,255503
-185,118,71,-4153,3653,255642
-208,164,474,-4139,3633,255554
-174,202,316,-4119,3567,255667
-128,171,128,-4071,3572,255542
-135,314,404,-4152,3629,255543
-100,262,-427,-4116,3640,255601
-127,358,281,-4097,3623,255461
-116,239,-450,-4171,3587,255703
-101,253,121,-4057,3540,255449
-28,162,192,-4080,3627,255649
-83,121,-35,-4135,3557,255585
47,179,602,-4143,3590,255562
-51,106,148,-4081,3644,255626
64,258,280,-4201,3553,255514
-67,408,201,-4154,3702,255525
-20,317,18,-4085,3639,255524
-62,617,-36,-4168,3615,255624
-64,539,17,-4061,3732,255579
28,515,29,-4069,3500,255485
-94,738,183,-4115,3648,255501
29,579,138,-4125,3665,255481
-84,763,-22,-4137,3529,255556
-22,819,143,-4060,3609,255571
23,617,-112,-4158,3564,255542
-10,757,678,-4078,3550,255487
69,593,-98,-4122,3661,255744
-24,639,150,-4120,3591,255560
79,741,555,-4083,3617,255624
-60,492,-629,-4161,3605,255734
46,781,583,-4101,3624,255611
31,401,141,-4152,3697,255813
25,344,-439,-4131,3419,255415
109,567,712,-4101,3645,255409
-15,73,-121,-4113,3610,255698
190,415,-653,-4096,3551,255465
-66,368,1056,-4081,3789,255591
217,-109,-628,-4165,3568,255626
15,362,-304,-4114,3522,255300
109,30,1000,-4169,3720,255651
194,-256,-601,-4135,3572,255665
-80,251,230,-4016,3516,255485
164,-31,577,-4110,3759,255816
-61,-248,-453,-4109,3563,255579
38,157,449,-4059,3545,255473
23,-88,606,-4095,3744,255756
60,-390,-420,-4080,3476,255529
92,197,560,-4140,3555,255397
-22,-222,154,-4202,3769,255801
187,-317,-391,-4144,3502,255511
-98,179,581,-4055,3612,255483
206,-390,122,-4126,3764,255827
29,-265,63,-4069,3473,255498
46,30,653,-4083,3697,255562
118,-425,-60,-4098,3694,255671
-67,-204,-249,-4079,3570,255365
56,-149,680,-4088,3697,255570
-100,-473,-657,-4088,3667,255585
60,-314,669,-4089,3531,255285
-75,-326,340,-4022,3642,255627
-40,-422,-186,-4159,3593,255536
-13,-244,844,-4079,3642,255444
-140,-377,176,-4100,3695,255641
13,-391,-89,-4044,3602,255517
-187,-272,919,-4114,3586,255531
-101,-289,-253,-4181,3616,255653
-86,-401,300,-4024,3626,255465
-165,-241,663,-4107,3490,255613
-39,-263,-605,-4131,3600,255668
-185,-413,577,-4053,3558,255518
-36,-380,270,-4138,3464,255610
-177,-340,-346,-4114,3697,255544
-88,-427,676,-4038,3682,255476
-132,-346,-18,-4071,3503,255605
-106,-288,-237,-4062,3653,255773
-88,-368,661,-4110,3607,255564
-77,-385,-116,-4127,3514,255682
-18,-338,283,-4043,3599,255529
-59,-430,701,-4158,3556,255698
69,-388,-155,-4128,3573,255647
-28,-185,275,-4113,3619,255521
35,-227,87,-4147,3680,255561
87,-235,-216,-4121,3679,255528
8,-24,278,-4143,3619,255472
136,-30,34,-4159,3648,255564
-3,17,-207,-4096,3636,255545
53,151,365,-4036,3597,255494
-6,107,-140,-4115,3666,255616
38,112,-11,-4142,3627,255478
69,95,554,-4102,3624,255598
81,9,-4,-4103,3595,255592
113,116,425,-4080,3597,255492
131,100,476,-4068,3628,255591
130,138,-33,-4118,3572,255503
132,272,127,-4127,3562,255573
82,263,41,-4116,3616,255642
108,211,-264,-4141,3531,255654
15,285,206,-4146,3624,255446
55,225,92,-4118,3587,255596
19,181,-79,-4088,3594,255535
13,369,453,-4060,3551,255568
102,242,114,-4151,3646,255645
140,283,197,-4068,3591,255571
132,461,465,-4126,3572,255620
68,396,-75,-4141,3624,255595
16,553,110,-4073,3526,255444
-101,747,-3,-4108,3609,255594
-49,662,-420,-4119,3672,255669
47,713,-15,-4069,3612,255526
118,813,-17,-4193,3607,255643
224,648,-186,-4116,3645,255556
185,649,343,-4149,3566,255389
200,664,55,-4100,3631,255590
127,534,-121,-4040,3617,255447
15,710,130,-4098,3603,255476
-60,633,-186,-4085,3687,255541
-123,550,-33,-4150,3599,255448
-111,625,471,-4154,3585,255515
-75,484,264,-4130,3639,255624
-33,514,535,-4118,3677,255526
-9,602,488,-4104,3608,255494
15,518,-43,-4068,3590,255590
-30,533,181,-4147,3569,255502
-36,435,168,-4132,3618,255590
-77,278,-146,-4058,3612,255576
-132,298,337,-4066,3525,255441
-146,199,276,-4149,3613,255636
-189,84,247,-4177,3561,255611
-198,150,483,-4116,3608,255610
-186,32,86,-4113,3657,255682
-181,-27,46,-4078,3581,255525
-186,9,236,-4064,3535,255592
-241,-52,-31,-4053,3643,255609
-243,25,196,-4096,3621,255568
-323,130,74,-4040,3645,255611
-304,128,-300,-4089,3644,255570
-325,132,-25,-4163,3655,255500
-325,11,-161,-4178,3584,255634
-240,-241,-137,-4124,3603,255561
-175,-336,365,-4091,3538,255502
-39,-425,259,-4043,3614,255642
69,-464,232,-4013,3528,255708
125,-421,370,-4089,3634,255583
168,-518,-31,-4077,3673,255643
127,-586,137,-4121,3556,255545
73,-583,368,-4171,3535,255536
7,-727,65,-4158,3569,255518
-117,-670,274,-4160,3649,255555
-223,-552,195,-4161,3585,255550
-308,-576,37,-4160,3588,255548
-304,-508,427,-4123,3533,255460
-285,-477,236,-4117,3572,255583
-265,-548,17,-4104,3636,255572
-235,-501,136,-4121,3565,255565
-178,-554,-61,-4064,3515,255544
-115,-559,-24,-4123,3558,255497
-90,-526,318,-4087,3641,255604
-70,-537,278,-4135,3547,255593
-77,-452,379,-4163,3564,255506
-176,-337,515,-4098,3627,255576
-168,-344,352,-4100,3669,255609
-165,-295,365,-4117,3613,255580
-132,-200,216,-4207,3621,255663
-53,-188,-116,-4079,3626,255681
-31,-150,-63,-4084,3621,255557
29,-140,-8,-4041,3643,255557
60,-225,40,-4017,3608,255641
56,-214,281,-4108,3614,255638
116,-324,166,-4091,3561,255594
118,-456,244,-4085,3600,255517
-42,-196,53,-4078,3474,255565
-57,22,-14,-4122,3599,255594
-3,-108,75,-4104,3655,255642
-15,-140,24,-4116,3489,255503
-50,-23,-65,-4167,3633,255451
-55,-23,110,-4138,3646,255506
-5,-49,341,-4065,3599,255601
117,-30,372,-4069,3552,255629
169,-30,434,-4093,3564,255587
237,93,190,-4089,3571,255532
241,198,96,-4047,3578,255436
248,242,33,-4051,3721,255536
280,265,-17,-4116,3645,255597
206,349,0,-4148,3632,255631
198,405,75,-4138,3679,255661
135,437,90,-4076,3643,255541
-234,865,129,-4131,3569,255488
6,748,132,-4235,3689,255524
32,421,294,-4041,3640,255547
91,679,362,-4091,3446,255412
75,789,84,-4148,3594,255672
98,593,91,-4065,3582,255685
163,673,-43,-4095,3473,255510
155,668,-213,-4192,3557,255605
191,534,-80,-4105,3628,255598
275,520,-21,-4119,3536,255641
202,540,-49,-4096,3612,255678
289,399,217,-4066,3616,255509
253,395,316,-4055,3563,255569
246,450,157,-4095,3593,255532
143,539,206,-4155,3690,255564
38,536,123,-4135,3623,255616
-45,503,83,-4104,3608,255537
-96,491,177,-4147,3615,255541
-89,376,121,-4102,3577,255576
-100,339,191,-4132,3602,255570
-58,341,406,-4166,3619,255533
-39,271,317,-4083,3638,255525
-67,349,341,-4150,3569,255640
-89,400,325,-4161,3638,255535
-199,447,58,-4130,3662,255546
-234,447,27,-4163,3642,255586
-215,343,106,-4174,3562,255491
-241,285,167,-4120,3645,255593
-131,198,318,-4144,3555,255655
-138,185,351,-4081,3586,255716
-47,69,370,-4159,3524,255614
-82,104,398,-4080,3583,255495
-48,73,355,-4025,3601,255487
-81,43,137,-4025,3481,255533
-73,88,19,-4136,3518,255513
-42,-38,-75,-4153,3585,255580
25,-152,40,-4063,3584,255580
45,-203,8,-4124,3597,255664
87,-339,53,-4109,3612,255626
87,-394,177,-4088,3667,255583
87,-472,254,-4133,3567,255575
107,-527,240,-4203,3641,255521
127,-598,287,-4152,3565,255564
120,-596,324,-4119,3599,255555
171,-616,226,-4022,3582,255611
140,-665,260,-4088,3597,255582
176,-649,259,-4137,3561,255589
163,-720,243,-4066,3606,255595
128,-668,303,-4103,3583,255503
169,-719,240,-4075,3624,255571
143,-772,324,-4104,3639,255511
122,-693,442,-4104,3603,255626
73,-649,380,-4142,3595,255619
61,-579,287,-4111,3542,255561
-21,-476,234,-4082,3587,255565
-17,-447,240,-4134,3623,255630
-51,-423,329,-4124,3585,255552
-68,-427,425,-4152,3507,255573
-72,-379,379,-4155,3502,255550
-114,-283,364,-4165,3507,255642
-154,-125,173,-4136,3639,255666
-189,-44,-41,-4154,3639,255705
-257,46,-90,-4138,3662,255622
-241,87,-100,-4089,3695,255711
-237,-24,-43,-4093,3680,255621
-211,-13,125,-4104,3620,255589
-184,-29,85,-4083,3539,255599
-180,-115,163,-4097,3629,255462
-176,-42,221,-4121,3587,255587
-189,30,-6,-4113,3563,255624
-236,63,-54,-4109,3579,255570
-288,110,-93,-4223,3557,255626
-212,180,-119,-4164,3597,255522
-315,199,-235,-4143,3687,255545
-183,167,34,-4159,3549,255504
-247,137,-76,-4072,3572,255680
-134,95,31,-4126,3559,255553
-160,175,-52,-4108,3530,255603
-101,122,-94,-4118,3593,255562
-75,135,-74,-4099,3618,255484
-52,219,-82,-4099,3627,255601
-24,218,-174,-4147,3674,255538
36,157,-13,-4182,3651,255433
59,130,192,-4135,3590,255575
61,148,129,-4069,3552,255583
116,150,390,-4094,3617,255626
145,147,268,-4078,3641,255682
138,252,279,-4079,3613,255603
219,283,206,-4091,3636,255572
184,315,271,-4059,3598,255644
250,414,221,-4102,3527,255553
211,529,221,-4111,3646,255539
208,571,179,-4126,3606,255637
234,602,96,-4119,3567,255551
166,603,153,-4096,3638,255595
227,629,149,-4114,3579,255534
179,660,192,-4111,3602,255564
270,666,185,-4104,3616,255470
224,709,179,-4059,3573,255669
187,786,210,-4070,3529,255534
180,757,264,-4145,3644,255653
93,778,229,-4136,3570,255621
103,880,144,-4068,3689,255611
-25,884,41,-4099,3661,255632
-62,962,-72,-4131,3569,255524
-120,997,-185,-4091,3633,255503
-173,935,-169,-4134,3582,255464
-149,906,-126,-4153,3604,255540
-214,832,-54,-4153,3615,255631
-179,715,-3,-4047,3573,255558
-212,643,116,-4084,3594,255498
-205,573,176,-4150,3643,255601
-166,445,212,-4120,3647,255636
-137,307,199,-4082,3583,255540
-94,201,143,-4061,3556,255534
-87,35,118,-4104,3649,255526
-11,-171,118,-4174,3648,255581
30,-362,153,-4066,3625,255547
66,-513,213,-4098,3564,255591
69,-607,189,-4031,3569,255519
20,-643,246,-4087,3602,255529
58,-663,261,-4092,3558,255531
2,-685,259,-4020,3584,255543
-13,-626,301,-4065,3640,255468
-3,-619,299,-4115,3668,255494
-7,-647,208,-4091,3645,255596
-30,-630,263,-4187,3608,255579
2,-618,208,-4177,3650,255570
-24,-617,208,-4160,3650,255463
26,-618,291,-4123,3605,255534
3,-623,333,-4084,3570,255587
40,-679,492,-4096,3611,255588
29,-643,616,-4040,3512,255611
35,-621,534,-4122,3624,255593
50,-590,379,-4066,3639,255591
77,-609,212,-4122,3623,255603
74,-649,87,-4056,3682,255584
148,-766,180,-4078,3617,255531
166,-955,379,-4089,3599,255574
232,-1069,533,-4100,3581,255570
285,-1155,661,-4020,3624,255640
265,-1211,718,-4095,3548,255648
347,-1217,564,-4114,3600,255617
326,-1141,471,-4131,3558,255573
399,-1088,234,-4133,3562,255598
350,-1039,139,-4155,3619,255596
490,-1120,234,-4101,3563,255502
425,-1125,356,-4040,3510,255529
476,-1092,656,-4093,3603,255581
497,-1042,750,-4108,3509,255590
314,-748,683,-4107,3508,255607
271,-418,448,-4109,3599,255687
132,-336,346,-4169,3648,255491
106,-150,163,-4136,3567,255552
77,12,151,-4062,3538,255603
-108,278,180,-4114,3510,255577
-344,834,63,-4139,3555,255494
-700,1564,180,-4114,3605,255586
-1009,1731,-76,-4165,3689,255613
-1121,1843,-193,-4178,3642,255533
-1142,1967,-311,-4135,3590,255518
-1151,1953,-382,-4125,3605,255566
-1112,1987,-306,-4086,3640,255464
-1022,1989,-121,-4154,3536,255563
-915,1795,48,-4141,3610,255664
-822,1762,258,-4157,3609,255593
-755,1711,139,-4125,3596,255636
-760,1642,-85,-4145,3667,255587
-765,1631,-264,-4171,3635,255466
-712,1508,-405,-4148,3653,255559
-684,1374,-413,-4146,3677,255486
-582,1180,-221,-4206,3587,255562
-536,1077,-178,-4114,3516,255693
-468,916,-120,-4073,3547,255625
-426,866,-187,-4078,3567,255519
-388,774,-418,-4104,3616,255573
-405,703,-444,-4106,3617,255511
-383,704,-528,-4125,3570,255430
-334,520,-459,-4177,3624,255387
-282,482,-291,-4078,3547,255519
-259,519,-251,-4100,3535,255599
-368,640,-411,-4104,3584,255640
-359,724,-530,-4094,3647,255669
-499,759,-522,-4171,3571,255532
-416,777,-402,-4166,3664,255477
-413,624,-89,-4140,3613,255596
-281,526,54,-4103,3598,255427
-275,622,0,-4057,3622,255548
-276,699,-221,-4052,3661,255550
-307,865,-380,-4134,3699,255557
-290,817,-564,-4103,3580,255519
-271,731,-416,-4080,3600,255475
-179,517,-33,-4132,3564,255544
-131,363,178,-4162,3561,255669
-106,413,108,-4061,3565,255526
-84,399,-79,-4111,3625,255575
-139,468,-296,-4165,3633,255565
-108,411,-459,-4183,3663,255545
-76,270,-401,-4128,3685,255540
22,45,-122,-4122,3612,255582
63,-133,185,-4124,3553,255533
94,-130,154,-4245,3607,255589
80,-140,-69,-4102,3651,255553
81,-117,-348,-4112,3683,255444
91,-179,-440,-4095,3674,255433
161,-384,-261,-4111,3687,255542
271,-628,132,-4179,3596,255635
331,-778,383,-4080,3579,255502
340,-754,362,-4108,3549,255529
317,-737,154,-4094,3536,255581
300,-691,-39,-4065,3664,255644
289,-692,-105,-4135,3738,255554
297,-797,76,-4129,3626,255459
340,-920,381,-4053,3562,255524
355,-954,485,-4005,3576,255610
327,-847,488,-4048,3563,255540
292,-770,314,-4076,3519,255537
286,-715,171,-4120,3621,255537
295,-694,170,-4172,3612,255532
316,-784,344,-4223,3580,255640
324,-830,531,-4125,3533,255700
287,-767,539,-4192,3575,255482
247,-668,449,-4118,3634,255530
215,-659,334,-4157,3649,255494
195,-636,279,-4075,3558,255522
184,-657,325,-4128,3623,255603
201,-775,476,-4151,3620,255609
247,-885,595,-4082,3563,255525
230,-854,620,-3986,3510,255583
207,-810,530,-4114,3554,255513
163,-822,426,-4095,3603,255566
130,-771,386,-4093,3620,255596
91,-736,375,-4146,3583,255617
89,-816,398,-4167,3599,255657
130,-784,369,-4104,3522,255566
116,-701,209,-4107,3592,255647
121,-678,185,-4147,3571,255609
130,-668,260,-4146,3617,255513
158,-607,331,-4099,3659,255613
171,-561,440,-4068,3653,255639
160,-530,526,-4064,3578,255591
145,-382,506,-4130,3591,255623
96,-215,372,-4164,3625,255626
85,-109,282,-4199,3563,255510
81,-21,259,-4082,3619,255531
68,88,249,-4095,3631,255610
65,145,217,-4096,3627,255646
54,161,299,-4121,3632,255571
64,233,356,-4109,3576,255504
63,238,396,-4105,3597,255569
61,251,362,-4148,3656,255530
58,346,301,-4097,3557,255500
29,387,195,-4040,3620,255565
1,449,72,-4082,3664,255524
-4,485,2,-4109,3603,255578
-31,502,-3,-4202,3594,255518
-50,486,55,-4149,3584,255511
-67,448,193,-4202,3585,255484
-71,454,304,-4068,3611,255515
-108,526,203,-4074,3628,255643
-150,606,164,-4162,3630,255689
-184,658,215,-4171,3619,255655
-207,704,159,-4199,3596,255506
-247,760,198,-4076,3600,255481
-281,828,271,-4070,3596,255619
-323,950,201,-4094,3649,255597
-345,1050,32,-4089,3742,255616
-368,1092,-82,-4063,3654,255625
-362,1062,-91,-4133,3650,255658
-365,1030,7,-4015,3573,255555
-372,1008,68,-4085,3585,255543
-396,1038,83,-4042,3660,255735
-431,1097,81,-4086,3667,255530
-439,1135,21,-4149,3648,255545
-411,1116,-18,-4165,3608,255523
-373,1074,63,-4138,3633,255545
-291,966,133,-4119,3616,255624
-260,878,246,-4110,3598,255570
-223,843,236,-4054,3601,255501
-216,820,72,-4036,3651,255500
-196,788,-31,-4111,3682,255494
-156,742,-89,-4193,3619,255561
-109,665,-190,-4150,3652,255516
-70,495,-61,-4084,3635,255499
-21,330,175,-4122,3609,255492
6,250,298,-4141,3516,255610
25,201,240,-4082,3579,255591
36,149,134,-4091,3663,255588
52,80,107,-4083,3587,255653
113,0,137,-4126,3643,255575
175,-101,162,-4085,3674,255536
250,-176,256,-4066,3656,255556
284,-210,274,-4077,3646,255540
315,-196,131,-4109,3655,255576
315,-154,15,-4096,3603,255587
312,-193,31,-4131,3586,255588
314,-246,152,-4117,3609,255517
316,-247,266,-4129,3593,255507
359,-321,409,-4104,3643,255575
344,-374,465,-4129,3619,255507
295,-299,454,-4139,3628,255479
238,-230,293,-4140,3623,255524
160,-222,42,-4125,3658,255505
100,-225,-67,-4081,3631,255544
78,-331,-75,-4158,3652,255631
80,-492,186,-4145,3591,255567
107,-606,371,-4108,3566,255540
82,-641,333,-4078,3606,255601
22,-592,218,-4176,3579,255451
-55,-536,-35,-4179,3604,255558
-96,-533,-277,-4159,3660,255463
-99,-650,-221,-4175,3645,255500
-76,-837,46,-4095,3608,255465
-39,-938,262,-4108,3506,255550
-53,-965,311,-4160,3606,255522
-77,-939,354,-4148,3635,255597
-89,-861,283,-4143,3580,255555
-110,-813,168,-4136,3594,255589
-79,-829,146,-4142,3597,255542
-83,-827,144,-4143,3543,255491
-94,-746,136,-4109,3585,255510
-123,-689,107,-4096,3588,255557
-202,-568,161,-4149,3600,255581
-170,-499,135,-4121,3568,255580
-176,-477,224,-4038,3577,255579
-125,-430,364,-4056,3583,255536
-97,-406,392,-4017,3632,255515
-57,-349,376,-4124,3635,255623
-55,-230,262,-4155,3594,255572
-64,-132,97,-4092,3641,255653
-66,-78,42,-4126,3588,255560
-66,-50,148,-4171,3637,255579
-42,-69,342,-4125,3609,255595
-18,-89,418,-4060,3524,255548
-16,-33,312,-4197,3549,255503
-11,9,185,-4106,3649,255528
-20,3,71,-4081,3642,255515
-2,-3,134,-4142,3603,255576
35,-57,281,-4110,3550,255623
59,-78,306,-4103,3553,255567
29,28,226,-4112,3576,255624
3,110,67,-4165,3590,255554
-16,138,-97,-4135,3721,255664
6,170,-138,-4084,3548,255661
16,174,-96,-4086,3633,255614
35,150,18,-4103,3612,255580
40,190,160,-4094,3545,255567
16,247,187,-4111,3525,255609
27,300,156,-4105,3548,255551
17,382,171,-4152,3555,255490
21,467,139,-4045,3582,255544
11,541,62,-4060,3653,255527
-40,670,-17,-4074,3630,255646
-39,801,75,-4059,3561,255569
-8,846,21,-4129,3626,255645
-36,943,-199,-4075,3619,255544
-29,1024,55,-4116,3647,255535
71,963,325,-4162,3657,255683
0,973,96,-4075,3615,255610
-58,1060,204,-4127,3618,255636
68,1071,548,-4162,3599,255600
35,1097,155,-4118,3527,255629
-120,1180,-135,-4149,3701,255403
-10,1133,184,-4100,3726,255494
61,1039,137,-4147,3677,255619
-115,1020,-131,-4083,3765,255488
-37,905,159,-4178,3643,255546
74,721,236,-4181,3580,255583
-87,636,137,-4069,3531,255547
-33,501,376,-4156,3686,255472
25,332,401,-4058,3634,255544
-80,341,378,-4052,3566,255518
-66,360,357,-4171,3637,255544
-59,304,-15,-4092,3743,255557
-153,303,9,-4135,3683,255571
-49,261,176,-4117,3634,255518
-57,151,-80,-4077,3645,255606
-163,132,67,-4108,3619,255550
-19,112,258,-4150,3613,255605
-65,110,-38,-4109,3584,255675
-154,155,17,-4124,3621,255571
-8,177,59,-4129,3702,255569
-47,155,-53,-4101,3659,255578
-85,118,177,-4123,3615,255499
38,115,54,-4124,3619,255576
-50,144,-44,-4072,3641,255524
-63,143,12,-4154,3632,255474
29,136,-305,-4190,3567,255638
-36,53,-162,-4066,3696,255651
-44,-101,138,-4130,3598,255656
37,-232,236,-4182,3635,255642
234,-363,469,-4095,3608,255576
46,-45,246,-4113,3557,255606
63,29,-1109,-4138,3654,255569
-53,27,173,-4165,3666,255495
-78,-460,-378,-4212,3589,255848
-142,-196,-572,-4123,3442,255492
-222,139,-330,-4119,3563,255481
-589,-212,-215,-4044,3683,255586
-588,-194,-552,-4151,3656,255495
-230,-300,-206,-4074,3525,255512
-431,-633,245,-4066,3660,255671
-476,-350,-180,-4106,3459,255603
-375,-486,140,-4014,3658,255592
-319,-748,198,-4152,3556,255621
-405,-440,155,-4055,3557,255582
-265,-542,-31,-4160,3798,255701
-475,-348,340,-4209,3639,255592
-249,-334,-4,-4071,3587,255546
-496,-411,260,-4042,3655,255553
-191,-393,143,-4203,3486,255544
-493,-320,-28,-3951,3528,255592
-336,-378,247,-4162,3641,255607
-155,-432,148,-4087,3588,255516
-373,-430,248,-4046,3612,255599
-65,-507,518,-4158,3598,255530
-193,-468,486,-4042,3564,255528
-211,-302,293,-4021,3625,255530
-146,-238,371,-4154,3665,255597
-184,-152,-58,-4023,3604,255598
-194,-101,128,-4102,3572,255513
-190,-109,258,-4084,3608,255505
-84,-154,605,-4111,3612,255686
-94,-185,774,-4220,3570,255569
-67,-2,177,-4131,3549,255579
-42,-39,332,-4144,3709,255529
3,44,57,-4196,3613,255631
19,78,-225,-4152,3668,255539
121,-65,354,-4146,3657,255494
246,-216,497,-4069,3567,255581
252,-213,677,-4167,3606,255617
503,-169,694,-4125,3553,255609
382,-100,254,-4123,3613,255532
535,-2,221,-4227,3699,255606
575,54,-243,-4040,3600,255610
530,104,152,-4083,3619,255587
752,-9,399,-4079,3581,255540
677,-42,413,-4036,3473,255565
799,172,899,-4154,3583,255588
680,276,256,-4138,3641,255641
577,567,103,-4066,3718,255543
588,678,-146,-4066,3693,255645
337,656,-287,-4114,3647,255526
546,593,189,-4111,3617,255554
345,514,111,-4057,3537,255581
407,603,487,-4175,3597,255464
331,669,9,-4104,3621,255535
175,762,64,-4126,3662,255515
225,788,-266,-4166,3662,255708
25,722,-55,-3992,3593,255590
197,565,187,-4182,3577,255657
63,509,117,-4159,3557,255605
112,483,396,-4115,3566,255576
66,497,146,-4130,3634,255617
-14,467,87,-4130,3638,255582
-4,626,-8,-4102,3701,255609
-30,423,32,-4128,3653,255605
-106,407,292,-4063,3537,255519
22,270,471,-4133,3604,255570
-259,392,-4,-4060,3577,255650
-49,467,361,-4215,3705,255446
-386,471,-412,-4073,3651,255561
-329,614,38,-4222,3636,255557
-269,398,15,-4184,3612,255627
-491,316,312,-4120,3489,255491
-130,210,662,-4135,3554,255609
-498,297,367,-4087,3556,255602
-308,338,258,-4120,3677,255595
-458,478,-162,-3992,3629,255525
-496,474,-277,-4199,3623,255529
-449,437,-256,-4129,3600,255628
-392,189,34,-4116,3612,255593
-414,158,232,-4161,3609,255568
-288,15,279,-4166,3624,255614
-379,40,218,-4157,3594,255543
-268,60,-67,-4188,3651,255541
-352,117,-347,-4110,3588,255602
-331,28,-253,-4209,3601,255576
-266,-146,-60,-4179,3639,255519
-329,-318,223,-4069,3633,255599
-126,-516,519,-4210,3570,255596
-186,-616,386,-4171,3613,255530
-23,-691,425,-4162,3583,255569
-58,-711,-11,-4074,3554,255670
53,-824,-39,-4222,3606,255545
104,-958,134,-4101,3627,255582
172,-1076,301,-4093,3537,255661
258,-1188,575,-4113,3535,255586
333,-1314,763,-4098,3554,255598
361,-1268,747,-4074,3584,255542
426,-1233,643,-4162,3582,255546
405,-1174,354,-4114,3541,255532
505,-1134,224,-4111,3607,255540
489,-1135,170,-4140,3563,255570
572,-1169,268,-4156,3595,255645
625,-1227,554,-4055,3574,255657
609,-1133,338,-4106,3572,255573
609,-1022,412,-4119,3672,255571
555,-963,441,-4115,3571,255516
553,-889,54,-4127,3591,255565
489,-792,206,-4108,3589,255586
567,-776,469,-4096,3559,255474
526,-707,340,-4073,3547,255668
489,-565,519,-4111,3554,255532
526,-409,252,-4149,3629,255528
356,-230,161,-4176,3632,255592
362,-182,107,-4155,3583,255484
338,-184,34,-4060,3596,255573
284,-112,449,-4095,3532,255598
403,-81,385,-4033,3507,255625
258,0,276,-4042,3561,255597
329,31,520,-4180,3609,255595
243,256,29,-4113,3685,255721
191,410,185,-4114,3677,255604
182,380,-118,-4129,3645,255602
93,394,17,-4098,3666,255480
191,290,294,-4076,3468,255591
32,331,257,-4014,3435,255549
94,347,628,-4174,3704,255494
-17,482,119,-4116,3659,255653
-50,649,33,-4161,3623,255599
-132,695,-220,-4162,3650,255617
-219,700,-179,-4172,3634,255495
-105,611,52,-4183,3655,255593
-210,609,-3,-4122,3655,255627
-85,516,622,-4241,3605,255417
-103,531,119,-4083,3551,255481
-214,596,250,-4104,3604,255543
-42,569,80,-4188,3638,255570
-204,592,-56,-4026,3585,255545
-193,638,-20,-4182,3683,255580
-199,633,32,-4082,3621,255636
-243,558,3,-4146,3640,255601
-190,609,198,-4199,3604,255656
-243,542,-140,-4080,3531,255533
-306,659,8,-4117,3579,255571
-177,487,-171,-4170,3663,255667
-451,512,-203,-4012,3642,255525
-66,326,244,-4161,3627,255507
-385,310,-47,-4096,3614,255552
-27,207,387,-4264,3624,255515
-204,173,-106,-3965,3608,255521
-121,146,232,-4115,3658,255610
-21,107,22,-4219,3684,255641
-193,102,58,-4053,3658,255484
30,-29,249,-4165,3562,255581
-130,-5,227,-4063,3563,255565
24,-88,431,-4079,3565,255535
-32,-2,337,-3976,3568,255621
-7,-27,337,-4112,3620,255549
-57,130,182,-4088,3639,255533
-1,103,77,-4140,3664,255511
-125,179,-90,-4143,3628,255543
12,129,152,-4135,3620,255512
-116,149,105,-4063,3595,255628
30,39,415,-4135,3629,255519
-65,117,139,-4010,3565,255566
-91,162,199,-4142,3665,255561
-55,218,-21,-4156,3622,255611
-174,227,-108,-4069,3605,255630
-53,256,-162,-4156,3686,255581
-193,214,-161,-4141,3595,255558
-66,155,104,-4117,3634,255599
-99,72,29,-4095,3589,255654
-115,3,121,-4225,3616,255490
51,-63,263,-4159,3539,255438
-100,-65,-220,-4136,3560,255558
-46,-22,230,-4179,3645,255529
9,-97,20,-4119,3599,255659
-220,-26,-103,-4055,3641,255581
2,-71,272,-4180,3633,255553
-105,-157,-148,-4059,3544,255583
-7,-164,435,-4190,3579,255541
66,-223,132,-4111,3615,255623
-90,-206,-22,-3990,3630,255584
124,-294,490,-4170,3603,255609
-44,-291,-272,-4082,3592,255487
68,-255,272,-4071,3627,255469
102,-303,-20,-4119,3606,255681
49,-287,12,-4125,3496,255604
236,-374,412,-4089,3560,255626
31,-213,-298,-4040,3555,255705
218,-189,489,-4219,3661,255494
264,-508,-14,-3998,3538,255584
-76,-123,-21,-4146,3585,255548
492,-350,391,-4268,3657,255581
-150,-311,-394,-3947,3523,255637
408,-337,738,-4305,3585,255486
95,-347,-258,-4036,3603,255550
88,-406,560,-4082,3542,255592
363,-431,449,-4125,3599,255684
-140,-332,-109,-4112,3590,255438
278,-362,639,-4161,3650,255536
-57,-232,-435,-4044,3587,255608
-142,-123,267,-4220,3662,255572
144,-200,-133,-4028,3670,255595
-330,-182,-51,-4058,3616,255650
231,-203,557,-4239,3590,255601
-197,-183,-36,-3864,3556,255469
-50,-106,663,-4217,3615,255560
50,3,61,-4230,3709,255484
-365,150,-109,-3927,3585,255429
162,201,71,-4208,3637,255659
-314,202,-493,-4035,3606,255562
-23,242,110,-4133,3599,255391
53,105,94,-4066,3669,255611
-303,43,206,-4102,3565,255481
308,73,762,-4096,3538,255584
-302,94,16,-3992,3574,255733
76,202,629,-4379,3682,255524
-21,152,-52,-3988,3611,255722
-357,337,-104,-4049,3587,255545
311,222,266,-4281,3659,255515
-429,319,-324,-3799,3485,255561
233,251,650,-4232,3630,255549
-162,283,-22,-4061,3592,255572
-80,311,507,-4124,3531,255476
135,403,111,-4072,3586,255678
-330,564,-159,-4141,3597,255606
77,580,215,-4201,3601,255615
-282,698,-490,-3951,3624,255622
-212,674,-45,-4278,3611,255436
-59,627,61,-4019,3600,255494
-329,530,-74,-4003,3565,255518
-112,511,665,-4260,3567,255612
-108,449,191,-4030,3631,255538
-284,526,92,-4087,3629,255572
-32,513,412,-4180,3613,255622
-216,490,-17,-4018,3597,255651
39,489,-30,-4174,3676,255532
-137,498,-338,-4130,3617,255524
-9,407,510,-4115,3599,255574
78,232,268,-3957,3495,255679
-215,292,-375,-4123,3576,255457
288,346,423,-4202,3571,255533
-20,230,443,-4034,3636,255662
55,208,315,-4298,3552,255364
-25,231,-202,-3976,3651,255659
-9,257,210,-4055,3585,255625
328,293,617,-4170,3608,255522
-103,147,-59,-4081,3552,255595
41,159,5,-4135,3569,255591
22,76,272,-4132,3627,255724
-74,78,275,-4038,3525,255744
258,35,335,-4092,3581,255561
7,35,125,-4097,3613,255568
257,62,567,-4101,3553,255517
-57,-19,-87,-4031,3665,255730
-157,110,-420,-4165,3699,255509
173,98,40,-4141,3574,255553
-66,-45,57,-4026,3564,255607
162,-127,56,-4274,3625,255537
18,-212,-240,-4073,3648,255597
160,-206,489,-4151,3570,255493
321,-329,582,-4193,3609,255497
-19,-325,-249,-4042,3601,255479
260,-227,-2,-4080,3677,255598
196,-287,141,-4098,3637,255553
141,-285,60,-4167,3573,255538
216,-345,42,-4171,3693,255653
128,-427,180,-4091,3596,255566
335,-420,575,-4067,3651,255611
216,-373,287,-4052,3500,255636
135,-272,195,-4100,3709,255520
189,-209,546,-4131,3699,255580
-10,-207,107,-4141,3698,255617
37,-164,-87,-4180,3625,255591
93,-202,139,-4084,3583,255641
115,-257,468,-4112,3489,255479
144,-306,131,-4180,3547,255538
-170,-185,-384,-3986,3573,255457
33,-202,141,-4145,3549,255572
-16,-263,-25,-4080,3611,255537
-73,-278,-53,-4127,3570,255582
21,-351,239,-4096,3614,255629
-121,-315,552,-4067,3530,255569
-26,-276,318,-4122,3642,255516
-324,-99,-399,-4069,3616,255443
-110,-101,152,-4250,3706,255545
-135,-184,48,-4157,3599,255561
-301,-279,-109,-4095,3515,255531
-56,-400,654,-4110,3582,255524
-138,-491,913,-3982,3497,255632
-161,-402,521,-4123,3605,255586
-107,-275,301,-4097,3591,255584
-41,-202,134,-4224,3673,255714
1,-171,-197,-4138,3622,255609
-197,-196,-285,-4056,3637,255632
-5,-315,382,-4084,3605,255614
78,-387,495,-4102,3561,255700
-76,-233,168,-4108,3605,255593
100,-136,549,-4152,3647,255610
5,-60,97,-4156,3610,255587
-87,65,-397,-4185,3579,255575
-85,28,57,-4127,3693,255639
55,-41,431,-4049,3602,255623
-3,30,164,-4096,3499,255463
-161,268,63,-4103,3623,255355
6,356,398,-4105,3625,255532
-165,402,-165,-4195,3614,255541
-250,527,-269,-4146,3666,255471
-19,400,446,-4081,3633,255593
-29,277,359,-4051,3494,255445
-73,399,75,-4047,3513,255526
-36,444,226,-4083,3707,255544
-33,425,203,-4079,3550,255625
-125,546,-310,-4075,3609,255563
-128,541,29,-4115,3638,255495
16,397,483,-4141,3624,255666
-116,346,-110,-4072,3588,255534
-152,462,-47,-4077,3556,255581
-16,408,474,-4121,3694,255539
-146,356,-23,-4002,3548,255606
-212,539,-195,-4092,3583,255524
-118,474,322,-4116,3595,255584
-186,355,252,-4051,3611,255658
-190,430,-5,-4126,3510,255512
-97,480,248,-4074,3551,255592
-73,400,84,-4127,3665,255620
-164,461,-196,-4163,3594,255561
-41,485,-96,-4188,3697,255548
-30,306,62,-4114,3615,255572
26,254,346,-4129,3557,255520
158,332,183,-4171,3513,255484
29,302,29,-4120,3633,255496
127,306,190,-4153,3617,255488
162,339,37,-4081,3581,255582
54,255,85,-4109,3564,255539
143,244,276,-4112,3599,255506
179,266,186,-4106,3684,255611
77,236,26,-4128,3645,255591
82,212,-9,-4209,3645,255560
180,196,92,-4055,3623,255511
167,139,193,-4137,3616,255550
140,75,107,-4103,3564,255628
229,98,270,-4170,3582,255616
202,156,180,-4135,3606,255528
59,182,-111,-4103,3657,255587
83,159,-21,-4140,3701,255588
143,178,98,-4092,3552,255549
120,109,23,-4128,3617,255568
115,15,66,-4126,3580,255535
189,17,200,-4125,3598,255511
76,82,19,-4027,3608,255567
27,68,-42,-4067,3600,255492
15,43,-37,-4067,3582,255602
-30,40,36,-4110,3590,255532
-24,-61,192,-4142,3659,255580
-55,-145,262,-4112,3631,255576
-7,-105,228,-4111,3685,255563
-406,-204,52,-4133,3648,255612
307,-393,274,-4192,3624,255525
-578,-1023,-1527,-4047,3534,255498
440,-363,1609,-4415,3554,255306
-284,-897,-553,-3558,3734,256387
-136,-689,509,-4348,3523,255306
246,-626,266,-4168,3628,255540
-473,-687,-245,-3875,3704,255704
351,-1007,363,-4386,3515,255423
-128,-874,443,-3927,3512,255508
94,-1521,-398,-4078,3592,255639
199,-1467,527,-4097,3452,255375
416,-607,518,-4101,3556,255621
48,-1031,-202,-4004,3672,255627
143,-1285,405,-4055,3518,255525
25,-649,1199,-4230,3592,255755
252,-292,-308,-3816,3448,255549
-586,-212,245,-4230,3746,255477
206,-186,988,-4282,3482,255351
-334,-1,-308,-3777,3519,255733
-163,-349,547,-4301,3717,255506
-43,-331,365,-4062,3442,255614
19,-412,1112,-4073,3638,255571
-152,-449,150,-4092,3473,255612
-138,-310,698,-4157,3542,255563
-54,8,496,-4072,3598,255524
-176,-36,-30,-4086,3720,255528
-400,265,-234,-4234,3675,255477
47,173,17,-4138,3580,255619
-109,-128,421,-4093,3589,255565
-20,-22,105,-4143,3439,255574
192,-113,695,-4082,3615,255655
97,-100,458,-4117,3580,255616
105,40,364,-4033,3590,255574
63,118,529,-4074,3691,255624
137,79,186,-4038,3542,255599
-93,144,324,-4170,3508,255580
189,397,412,-4201,3597,255568
-79,263,-63,-3927,3580,255644
-179,447,133,-4294,3652,255460
118,582,283,-4122,3675,255572
-290,374,91,-4124,3609,255659
-106,659,521,-4249,3481,255440
-109,629,126,-4033,3566,255575
-390,826,84,-4166,3585,255439
-206,929,22,-4188,3605,255523
-397,1069,-634,-3990,3603,255629
-378,1241,-41,-4086,3602,255549
-296,1056,-137,-4122,3637,255561
-370,1312,-515,-4084,3554,255599
-272,1183,191,-4152,3670,255529
-217,1202,-404,-4104,3594,255527
-212,1255,44,-4061,3597,255625
-189,1151,-59,-4115,3620,255696
-138,1329,-394,-4009,3657,255619
-147,1084,266,-4132,3643,255514
0,1124,-205,-4183,3627,255530
-74,1156,-324,-4043,3619,255526
-21,885,371,-4103,3560,255569
117,1034,-344,-4125,3585,255487
-76,887,-138,-4083,3542,255503
60,873,-22,-4140,3628,255558
76,815,-139,-4131,3603,255491
-84,720,262,-4188,3620,255516
89,730,-33,-4252,3613,255514
-51,488,346,-4041,3657,255653
14,561,154,-4228,3561,255726
-10,538,-241,-4170,3673,255600
-10,362,104,-4042,3672,255627
40,374,-230,-4112,3555,255574
100,169,110,-4055,3617,255508
37,46,202,-4111,3632,255499
149,16,186,-4170,3579,255556
120,-89,336,-4004,3625,255620
1,-78,-153,-4140,3553,255543
188,-162,48,-4139,3554,255490
-28,-166,-286,-4008,3592,255577
117,-196,-350,-4204,3622,255484
115,-373,-31,-4070,3612,255555
36,-491,-89,-4081,3566,255591
279,-476,228,-4169,3678,255583
-29,-628,292,-3991,3580,255627
218,-610,435,-4114,3578,255593
125,-627,165,-4116,3665,255519
-85,-619,187,-4146,3512,255565
318,-572,196,-4115,3706,255615
-166,-675,-183,-4089,3639,255639
219,-672,305,-4118,3646,255496
255,-801,82,-3948,3609,255613
-54,-922,369,-4244,3543,255397
514,-956,703,-4163,3524,255533
-10,-1081,249,-3885,3570,255579
184,-964,819,-4313,3502,255505
377,-897,229,-3943,3567,255617
-212,-924,150,-4016,3616,255664
413,-805,499,-4355,3596,255464
-8,-801,-355,-3811,3610,255571
9,-829,453,-4218,3596,255465
404,-877,61,-4217,3569,255588
-89,-979,153,-3847,3550,255585
390,-969,786,-4327,3542,255513
148,-816,1,-4023,3521,255537
-120,-602,403,-4059,3548,255614
75,-284,6,-4293,3602,255523
-469,56,-618,-4001,3680,255656
-341,210,38,-4149,3632,255603
-383,317,-636,-4234,3526,255599
-582,271,-171,-4109,3601,255390
-228,176,219,-4163,3537,255677
-406,201,-149,-4116,3583,255621
-385,175,491,-4046,3572,255570
-296,332,233,-4161,3543,255655
-554,458,91,-4126,3642,255549
-484,493,355,-4163,3646,255525
-513,637,-53,-4147,3551,255546
-569,503,351,-4110,3619,255536
-446,479,122,-4156,3609,255523
-429,418,126,-4117,3572,255557
-339,219,622,-4075,3616,255470
-191,232,305,-4087,3529,255581
-196,125,525,-4005,3602,255608
-144,254,393,-4093,3585,255570
-60,310,294,-4021,3618,255702
-210,265,292,-4032,3583,255604
-36,411,-12,-4064,3593,255490
-86,321,334,-4101,3650,255559
-42,278,300,-4126,3491,255732
190,362,285,-4031,3556,255563
-17,296,432,-4063,3614,255592
203,419,287,-4169,3572,255465
183,449,582,-4063,3622,255567
19,506,108,-4166,3542,255615
215,712,44,-4137,3614,255622
64,566,212,-4034,3664,255568
25,664,-322,-4199,3546,255475
221,622,357,-4119,3718,255543
-10,436,-100,-4059,3681,255588
237,577,174,-4053,3526,255401
238,392,540,-4026,3715,255687
9,447,-202,-4186,3638,255613
355,582,617,-4165,3560,255566
-41,449,-196,-3967,3602,255763
43,620,-138,-4195,3651,255435
194,485,241,-4097,3624,255482
-295,496,-595,-4022,3557,255549
215,527,514,-4326,3628,255541
-136,324,-255,-3974,3586,255716
-80,429,126,-4120,3682,255583
302,291,338,-4209,3734,255561
-344,296,-277,-3868,3565,255577
262,361,573,-4266,3654,255667
-194,310,-214,-4139,3581,255593
-201,370,154,-4084,3578,255465
123,381,106,-4082,3670,255743
-534,359,-207,-4086,3563,255533
69,420,414,-4113,3664,255428
-299,376,-220,-3931,3637,255551
-407,487,85,-4277,3572,255398
69,438,159,-4095,3635,255573
-659,463,-370,-3974,3604,255557
-58,502,320,-4277,3696,255502
-445,416,-291,-3737,3594,255616
-508,504,116,-4207,3599,255514
-159,438,68,-4278,3591,255587
-721,543,-344,-3894,3481,255585
-207,497,204,-4250,3749,255689
-572,483,-517,-4127,3634,255663
-482,506,30,-4153,3609,255605
-231,313,4,-4061,3684,255525
-637,331,-338,-4047,3592,255378
-151,195,452,-3999,3639,255516
-466,87,-260,-3968,3655,255639
-286,46,389,-4250,3616,255489
-204,-27,-7,-4050,3651,255712
-402,-3,-141,-4063,3654,255577
-41,-160,85,-4221,3644,255525
-309,-145,-322,-3954,3583,255696
-34,-286,65,-4189,3624,255531
-93,-326,82,-4097,3586,255495
-48,-422,177,-4124,3578,255476
83,-436,383,-4109,3610,255506
-50,-486,244,-4129,3584,255577
107,-406,370,-4141,3532,255588
143,-495,323,-4090,3608,255709
-33,-341,-113,-4123,3519,255684
367,-443,516,-4145,3643,255599
-59,-488,-133,-4074,3640,255674
342,-480,789,-4269,3548,255548
212,-634,419,-3978,3630,255789
38,-559,640,-4079,3581,255558
476,-599,755,-4235,3651,255567
-133,-556,191,-3945,3688,255694
418,-550,412,-4173,3628,255641
2,-498,94,-4048,3602,255639
118,-561,29,-4162,3601,255565
252,-516,303,-3984,3684,255649
7,-648,-64,-4099,3569,255539
220,-546,379,-4062,3569,255562
227,-700,385,-4038,3665,255568
4,-526,206,-4102,3494,255538
391,-588,485,-4195,3662,255632
-95,-467,8,-4114,3652,255588
237,-415,384,-4295,3642,255461
38,-347,-19,-3885,3568,255623
27,-286,87,-4129,3582,255539
231,-263,140,-4204,3587,255543
16,-200,-22,-3984,3521,255607
226,-169,194,-4159,3676,255538
76,-110,98,-4085,3587,255515
73,-29,236,-4184,3625,255513
53,54,187,-4171,3539,255650
-30,126,126,-4065,3618,255551
23,274,145,-4132,3589,255538
-34,270,33,-4142,3684,255649
-16,403,103,-4165,3557,255448
96,384,212,-4087,3649,255532
-38,502,-127,-4096,3598,255543
145,543,159,-4127,3661,255477
-23,609,-207,-4091,3651,255591
40,655,75,-4090,3642,255567
94,621,60,-4137,3555,255595
-78,632,130,-4106,3544,255601
155,671,242,-4157,3640,255614
-99,598,150,-4055,3596,255546
-26,709,176,-4102,3526,255452
-54,676,110,-4022,3647,255546
-192,726,-175,-4145,3608,255445
13,661,-21,-4088,3669,255525
-213,581,-281,-4051,3673,255574
-74,485,159,-4224,3614,255497
-46,337,158,-4133,3585,255577
-187,284,322,-4105,3601,255545
69,229,379,-4188,3570,255488
-194,220,88,-4012,3543,255543
-38,267,197,-4200,3633,255458
-54,216,-76,-4147,3563,255586
-159,265,-138,-4103,3576,255619
82,227,-75,-4176,3644,255599
-130,179,-79,-4086,3610,255543
49,121,181,-4135,3588,255514
-8,69,332,-4091,3551,255548
-52,65,272,-4177,3505,255635
15,143,438,-4088,3608,255657
-97,150,114,-4052,3583,255600
-109,213,84,-4117,3656,255528
-50,198,77,-4091,3569,255584
-199,196,-73,-4075,3599,255590
2,94,239,-4133,3610,255556
-130,36,159,-4042,3520,255649
-49,-20,387,-4121,3597,255599
-61,-51,335,-4065,3660,255603
-95,-39,377,-4087,3640,255471
-69,8,247,-4121,3579,255533
-113,45,148,-4167,3633,255463
-102,36,126,-4162,3605,255500
-65,-19,47,-4131,3631,255543
-34,-83,101,-4141,3667,255623
47,-206,126,-4071,3575,255577
73,-330,304,-4107,3543,255551
104,-406,476,-4110,3531,255571
121,-441,444,-4064,3543,255666
77,-374,398,-4073,3564,255592
126,-333,251,-4079,3660,255611
33,-304,17,-4067,3582,255644
116,-326,19,-4103,3574,255587
63,-392,-69,-4169,3607,255585
89,-472,32,-4180,3591,255525
138,-545,118,-4172,3606,255520
72,-602,104,-4060,3571,255478
137,-561,101,-4174,3569,255590
62,-500,-7,-4108,3583,255634
83,-478,-13,-4221,3599,255544
112,-432,-85,-4140,3544,255666
55,-376,-172,-4115,3574,255571
107,-378,-150,-4102,3618,255515
101,-424,-97,-4121,3594,255556
121,-454,97,-4135,3550,255579
203,-458,259,-4065,3590,255541
144,-380,383,-4100,3583,255648
196,-267,413,-4162,3683,255583
130,-155,267,-4127,3686,255499
143,-51,184,-4150,3670,255528
118,-21,172,-4065,3634,255556
124,-14,158,-4111,3605,255674
134,-43,292,-4039,3560,255648
144,-81,336,-4022,3520,255598
160,-95,499,-4065,3504,255612
179,-75,537,-4111,3591,255618
156,-22,504,-4115,3589,255561
142,54,416,-4101,3578,255639
97,99,291,-4096,3640,255457
30,124,230,-4149,3660,255468
25,126,190,-4177,3619,255531
-14,144,153,-4078,3624,255551
-11,134,211,-4046,3664,255484
-29,96,240,-4071,3549,255549
-19,62,331,-4067,3531,255577
-50,97,309,-4148,3562,255557
-73,143,314,-4198,3641,255510
-143,210,210,-4220,3607,255638
-157,269,132,-4164,3693,255636
-197,321,-36,-4105,3637,255653
-236,381,-92,-4102,3647,255598
-238,386,-105,-4136,3564,255610
-255,377,-100,-4090,3582,255597
-268,397,-34,-4073,3592,255634
-274,424,31,-4131,3589,255610
-297,434,16,-4156,3551,255620
-290,484,21,-4136,3574,255591
-279,491,-87,-4135,3643,255677
-287,482,-44,-4091,3666,255576
-249,460,-132,-4125,3605,255583
-283,458,-39,-4157,3650,255455
-168,360,-71,-4144,3625,255630
-228,338,60,-4042,3676,255609
-80,210,431,-4130,3646,255488
-140,234,141,-4098,3525,255540
-62,194,498,-4182,3647,255548
-61,219,81,-4127,3584,255636
-21,215,450,-4154,3627,255552
30,199,73,-4159,3620,255524
0,260,208,-4074,3622,255439
95,233,-3,-4057,3659,255497
-55,312,115,-4079,3632,255503
96,213,77,-4174,3633,255560
-68,343,134,-4022,3578,255510
98,235,192,-4207,3652,255475
-86,355,172,-4100,3627,255535
143,217,331,-4141,3664,255509
-128,388,167,-4055,3674,255591
159,323,385,-4163,3655,255682
-110,416,13,-4075,3654,255700
133,371,241,-4275,3692,255424
-59,399,-240,-4068,3592,255543
34,346,177,-4121,3607,255612
38,241,-143,-4134,3604,255696
-55,241,180,-4061,3558,255481
168,103,42,-4027,3632,255618
-80,148,115,-4017,3612,255665
182,40,202,-4146,3642,255675
-93,140,94,-3975,3584,255599
129,8,176,-4138,3646,255598
-92,118,85,-4132,3602,255491
97,-67,90,-4238,3628,255478
-93,21,36,-4059,3588,255586
135,-181,120,-4128,3640,255622
-74,-102,71,-4036,3610,255596
181,-256,254,-4187,3646,255500
-70,-147,70,-4091,3610,255565
153,-268,276,-4161,3582,255688
-56,-175,39,-4128,3607,255619
70,-253,236,-4171,3674,255515
-4,-210,19,-4032,3554,255598
31,-242,243,-4139,3580,255547
37,-250,-10,-4080,3560,255576
-10,-260,353,-4067,3645,255480
66,-335,182,-4107,3556,255654
-17,-287,462,-4097,3579,255564
129,-366,245,-4198,3647,255639
-61,-202,340,-4051,3514,255523
145,-317,210,-4102,3545,255682
-124,-133,114,-4047,3542,255561
161,-274,135,-4186,3650,255496
-145,-129,20,-4047,3527,255535
195,-353,241,-4189,3611,255570
-114,-203,3,-4050,3588,255578
202,-398,382,-4205,3696,255555
-56,-275,58,-4030,3527,255614
184,-360,340,-4130,3618,255553
-2,-255,-21,-4128,3568,255506
101,-331,278,-4192,3667,255467
-5,-249,18,-4054,3606,255584
20,-311,372,-4157,3582,255528
13,-309,65,-4166,3620,255623
-54,-251,347,-4115,3591,255533
28,-278,50,-4020,3635,255601
-95,-225,223,-4054,3624,255503
98,-290,72,-4191,3602,255475
-90,-185,150,-4034,3542,255573
143,-273,124,-4178,3597,255668
-81,-166,213,-4055,3536,255605
147,-293,217,-4191,3618,255598
-68,-147,289,-4105,3549,255601
112,-216,187,-4149,3612,255608
3,-116,211,-4069,3638,255567
103,-158,54,-4180,3619,255708
44,-95,302,-4092,3551,255624
75,-147,188,-4160,3591,255593
75,-71,432,-4154,3631,255584
26,-48,185,-4106,3685,255678
62,7,381,-4099,3564,255558
-70,59,95,-4107,3662,255631
25,100,300,-4142,3679,255493
-179,179,-95,-4019,3650,255499
2,164,256,-4145,3637,255432
-217,198,-12,-4058,3625,255542
10,181,284,-4144,3627,255557
-202,232,21,-4018,3606,255546
13,217,217,-4155,3584,255547
-175,284,69,-4093,3624,255618
14,303,37,-4100,3627,255581
-186,376,-28,-3970,3646,255538
0,360,-64,-4156,3651,255543
-221,392,151,-4066,3639,255507
-7,365,36,-4185,3574,255483
-223,435,285,-3971,3577,255561
-13,370,137,-4145,3534,255571
-227,436,351,-4119,3637,255600
17,385,181,-4140,3591,255622
-258,519,169,-3967,3705,255583
6,458,61,-4183,3627,255682
-169,496,-112,-4050,3654,255663
-11,455,67,-4222,3635,255575
-61,371,-31,-4053,3563,255572
7,372,248,-4129,3559,255595
20,292,101,-4112,3617,255600
7,387,194,-4132,3516,255613
72,259,-17,-4182,3529,255626
-62,484,-169,-4216,3602,255631
100,316,-171,-4225,3695,255520
-188,586,-423,-4051,3588,255532
198,250,52,-4123,3700,255671
-216,410,-323,-3996,3522,255658
164,159,437,-4249,3602,255550
-185,317,-97,-3915,3564,255566
53,139,547,-4208,3613,255547
-239,422,-191,-4151,3560,255615
-82,393,361,-4108,3669,255435
-304,565,-557,-4074,3566,255650
-247,604,132,-4226,3578,255589
-224,523,-505,-4188,3614,255571
-374,566,138,-4101,3683,255371
-60,400,-123,-4138,3703,255551
-404,465,166,-4145,3560,255453
73,181,190,-4258,3549,255470
-341,280,209,-3953,3545,255514
116,116,305,-4143,3697,255618
-277,293,108,-4029,3612,255643
57,120,150,-4231,3722,255578
-305,239,122,-3940,3568,255659
47,-43,315,-4195,3682,255532
-238,3,363,-4037,3571,255490
33,-175,344,-4157,3489,255502
-174,-156,314,-4008,3573,255664
-46,-222,251,-4183,3625,255521
-87,-261,345,-4111,3577,255558
-80,-296,173,-4075,3535,255571
-13,-344,454,-3973,3608,255511
-104,-335,49,-4153,3595,255664
1,-397,499,-4156,3533,255503
-110,-354,-138,-4112,3510,255564
-18,-380,377,-4125,3736,255559
-73,-330,-262,-4107,3583,255568
-9,-364,279,-4092,3549,255563
-26,-325,-238,-4179,3533,255699
24,-375,408,-4052,3631,255507
4,-292,-65,-4135,3591,255551
111,-383,556,-4116,3572,255507
6,-266,62,-4057,3528,255742
114,-289,645,-4142,3609,255643
-67,-159,-158,-4116,3565,255666
75,-180,520,-4137,3673,255403
-64,-144,-179,-4044,3551,255600
18,-176,501,-4183,3591,255524
-32,-155,-15,-4149,3555,255609
6,-216,721,-4031,3559,255590
36,-237,206,-4046,3537,255691
35,-162,773,-4111,3623,255589
95,-216,289,-4103,3639,255620
-1,-30,526,-3977,3589,255521
130,-114,312,-4152,3662,255641
-43,85,177,-4121,3623,255591
204,-52,453,-4138,3575,255596
-82,187,-178,-4075,3519,255541
178,33,508,-4193,3662,255548
-59,170,-231,-4091,3573,255614
57,167,609,-4173,3546,255523
-40,285,-221,-4104,3560,255625
-133,395,314,-4260,3656,255494
-44,486,-53,-4155,3617,255535
-276,620,-89,-4052,3681,255528
-61,505,4,-4236,3643,255554
-357,676,-157,-4094,3646,255528
-110,547,126,-4110,3659,255560
-341,596,-172,-4032,3633,255652
-87,459,310,-4205,3566,255495
-302,503,-78,-4022,3603,255527
-86,493,168,-4180,3629,255550
-327,534,-208,-4013,3593,255627
-99,500,-36,-4132,3612,255572
-296,469,-178,-4077,3628,255508
-162,469,-300,-4185,3618,255596
-305,413,-45,-4110,3674,255567
-151,272,-138,-4227,3628,255628
-223,273,-197,-4096,3618,255597
-218,261,145,-4020,3623,255603
30,229,38,-4163,3566,255739
-252,183,-118,-4122,3674,255601
80,213,405,-4071,3679,255604
-58,291,-504,-4052,3604,255636
-138,325,384,-4115,3677,255583
127,275,-208,-4022,3590,255668
-124,277,-91,-4045,3664,255542
56,278,331,-4167,3614,255569
6,279,14,-4092,3590,255641
42,236,159,-4156,3650,255453
-70,289,382,-4125,3646,255571
39,263,41,-4104,3593,255576
-55,266,387,-4086,3702,255533
-55,195,109,-4174,3623,255485
-15,342,179,-4129,3629,255568
-26,168,218,-4122,3597,255662
-141,185,-17,-4161,3538,255447
33,192,225,-4121,3609,255497
-211,117,227,-4017,3591,255499
38,121,26,-4322,3560,255512
-179,106,293,-4071,3671,255526
-41,-11,-93,-4149,3601,255561
-45,-30,222,-4172,3644,255548
-62,-93,45,-4125,3594,255464
-130,-25,62,-4183,3572,255464
42,-117,128,-4212,3635,255591
-111,-75,0,-4138,3580,255649
30,-98,6,-4283,3594,255508
9,-206,-106,-4088,3579,255548
38,-175,16,-4146,3541,255608
153,-272,-58,-4178,3537,255515
31,-308,-90,-4099,3547,255540
230,-325,293,-4184,3588,255670
102,-289,-70,-4066,3621,255654
178,-281,474,-4180,3615,255568
186,-255,46,-4108,3604,255729
4,-112,-20,-4114,3568,255503
164,-197,278,-4125,3635,255451
-23,-193,-346,-4053,3609,255602
-31,-102,257,-4224,3613,255557
75,-311,121,-4051,3565,255564
-296,-193,140,-4011,3597,255566
150,-219,637,-4280,3611,255575
-325,-233,-186,-4030,3616,255521
-47,-162,785,-4144,3625,255565
-43,-244,-211,-4222,3614,255633
-405,-101,-49,-4079,3561,255379
152,-207,88,-4060,3646,255590
-434,-88,-561,-4057,3620,255536
31,-217,514,-4192,3576,255405
-134,-133,-238,-3943,3587,255632
-181,-164,432,-4300,3622,255593
136,-176,410,-4181,3642,255478
-263,-10,-98,-3979,3605,255442
60,-20,520,-4319,3761,255467
-30,-111,-206,-4063,3651,255562
-202,-3,386,-4088,3627,255634
235,-150,390,-4273,3736,255552
-262,-90,100,-3988,3588,255489
257,-138,1021,-4176,3645,255477
-92,-96,-5,-4051,3629,255624
-45,-11,789,-4226,3641,255545
307,-115,188,-3966,3694,255682
-297,76,-43,-4061,3740,255539
389,-34,472,-4189,3730,255616
-183,-23,-289,-3757,3628,255789
262,-98,500,-4318,3594,255662
186,-120,49,-4095,3582,255580
-58,-35,290,-3986,3599,255568
364,-4,584,-4253,3633,255566
-96,-22,-56,-4055,3601,255547
146,190,268,-4077,3688,255537
186,171,-135,-4107,3674,255611
-196,264,-191,-4092,3604,255489
348,285,55,-4052,3590,255611
-259,231,-197,-4014,3639,255589
249,244,475,-4286,3564,255492
33,222,129,-3884,3590,255789
-40,268,400,-4201,3622,255595
322,235,422,-4238,3611,255556
-261,339,89,-3937,3540,255642
333,281,496,-4349,3713,255506
-99,343,-143,-4089,3636,255628
21,410,253,-4177,3579,255628
228,321,83,-4180,3700,255738
-210,242,150,-4193,3562,255563
236,341,342,-4195,3604,255727
-58,161,218,-3985,3637,255567
-52,288,237,-4287,3555,255571
142,352,191,-3989,3620,255646
-332,382,-303,-4078,3647,255482
78,373,133,-4324,3626,255512
-215,329,-152,-3962,3605,255743
-122,265,177,-4174,3589,255727
64,191,335,-4142,3528,255715
-207,184,156,-4080,3585,255540
105,180,437,-4260,3602,255557
-60,179,123,-4108,3549,255564
-16,267,104,-4107,3542,255579
85,282,104,-4160,3612,255539
-85,265,-18,-4186,3655,255515
111,295,194,-4156,3637,255678
13,219,76,-4184,3550,255631
58,213,191,-4190,3504,255487
151,146,275,-4124,3638,255580
16,130,154,-4069,3587,255608
184,99,375,-4169,3562,255649
18,82,127,-4036,3608,255645
101,107,250,-4160,3593,255539
92,47,121,-4202,3616,255608
-12,42,-42,-4149,3603,255610
129,-49,169,-4228,3726,255435
-114,-129,-55,-4114,3604,255538
98,-210,319,-4081,3557,255526
-66,-252,108,-4077,3556,255666
-76,-275,252,-4165,3552,255544
20,-298,123,-4031,3619,255593
-189,-340,151,-4074,3613,255582
-36,-329,73,-4196,3525,255526
-125,-346,196,-4076,3610,255563
-142,-384,23,-4161,3613,255533
-98,-330,132,-4116,3559,255509
-156,-393,82,-4114,3623,255679
-175,-263,141,-4138,3611,255609
-59,-317,226,-4146,3597,255591
-266,-159,172,-4184,3585,255564
33,-257,343,-4253,3704,255590
-245,-190,133,-4048,3607,255561
13,-260,416,-4150,3568,255531
-140,-208,178,-4080,3535,255634
8,-255,429,-4159,3637,255515
-19,-183,234,-4104,3596,255485
7,-161,270,-4160,3619,255522
14,-84,166,-4106,3617,255515
45,-147,280,-4135,3682,255584
-14,-124,185,-4090,3620,255582
38,-172,448,-4130,3558,255591
-31,-224,282,-4130,3584,255646
3,-181,335,-4163,3614,255481
-5,-188,147,-4104,3616,255600
-35,-123,46,-4170,3592,255621
51,-137,-87,-4196,3685,255494
-48,-73,-210,-4132,3627,255593
20,-165,-134,-4140,3620,255650
-22,-174,81,-4175,3528,255594
-13,-248,110,-4143,3569,255572
40,-263,219,-4097,3521,255506
-9,-281,188,-4036,3530,255549
29,-184,297,-4085,3558,255639
-80,-99,140,-4134,3689,255645
-27,10,177,-4125,3648,255652
-128,82,-1,-4070,3665,255625
-39,119,137,-4098,3652,255579
-101,126,88,-4073,3562,255573
-4,122,265,-4127,3538,255534
-92,194,164,-4144,3575,255558
26,219,219,-4146,3587,255590
-144,330,37,-4077,3587,255565
74,357,192,-4132,3569,255680
-141,432,-22,-4120,3569,255641
97,437,213,-4202,3641,255552
-64,445,21,-4111,3649,255599
85,449,43,-4172,3584,255509
-19,482,-45,-4139,3614,255614
104,436,11,-4092,3611,255543
5,458,-9,-4045,3687,255611
157,450,174,-4119,3625,255531
10,485,-46,-4063,3633,255566
150,522,180,-4241,3687,255438
5,499,-30,-4081,3692,255606
84,484,241,-4113,3654,255546
63,360,123,-4069,3608,255597
60,376,416,-4105,3600,255616
92,289,180,-4116,3675,255657
39,396,338,-4095,3599,255614
88,254,149,-4143,3621,255694
-14,400,236,-4074,3598,255505
115,220,195,-4141,3662,255593
-112,405,1,-4083,3646,255575
76,216,119,-4182,3673,255521
-235,402,-115,-4007,3602,255710
60,154,340,-4148,3582,255637
-236,329,-120,-4100,3485,255576
44,183,462,-4230,3635,255556
-195,406,-396,-3988,3566,255673
-20,340,264,-4179,3648,255586
-88,386,-536,-4158,3657,255629
-107,354,154,-4122,3571,255558
8,282,-315,-4037,3518,255598
-177,274,224,-4105,3595,255558
56,145,-60,-4190,3624,255537
-250,278,176,-4002,3592,255585
88,85,80,-4148,3612,255602
-286,217,32,-4067,3572,255696
127,-4,265,-4269,3648,255621
-311,101,112,-3993,3573,255541
104,-86,445,-4225,3620,255584
-303,17,128,-4124,3587,255586
52,-122,391,-4233,3608,255596
-253,-55,113,-3885,3570,255608
-54,-195,433,-4146,3611,255505
-157,-208,374,-4113,3582,255535
-143,-190,374,-4083,3563,255548
-50,-257,295,-4070,3630,255627
-190,-159,48,-4164,3579,255547
9,-198,135,-4119,3652,255615
-241,-177,-106,-4020,3689,255509
57,-307,347,-4148,3562,255540
-177,-200,-39,-4150,3612,255628
76,-314,326,-4190,3626,255643
-110,-259,-97,-4007,3475,255665
25,-275,214,-4219,3578,255577
-32,-291,-149,-4109,3635,255668
13,-340,194,-4100,3547,255495
21,-270,-168,-4079,3575,255604
52,-307,43,-4186,3606,255562
49,-244,-176,-4169,3535,255590
93,-305,110,-4194,3627,255584
90,-340,75,-4135,3657,255740
86,-325,337,-4086,3559,255627
137,-341,272,-4148,3564,255544
45,-281,338,-4134,3600,255535
131,-296,231,-4128,3614,255570
20,-214,145,-4149,3617,255573
155,-297,252,-4131,3625,255551
11,-225,259,-4023,3580,255530
129,-295,420,-4161,3539,255583
-4,-269,340,-4104,3537,255525
24,-201,312,-4105,3541,255622
-64,-104,126,-4067,3537,255552
-33,-124,121,-4159,3653,255590
-105,-32,-26,-4075,3606,255568
-58,-83,135,-4085,3667,255500
-99,-42,177,-4102,3617,255496
-70,-39,271,-4152,3616,255522
-70,72,188,-4161,3606,255564
-101,73,164,-4095,3631,255585
-16,62,179,-4217,3694,255707
-71,51,285,-4126,3650,255582
53,78,292,-4215,3538,255534
-1,172,251,-4099,3629,255544
67,221,157,-4184,3616,255582
12,333,30,-4124,3613,255655
87,300,4,-4133,3639,255522
-7,308,-1,-4050,3587,255648
149,226,312,-4155,3630,255688
-8,219,94,-4121,3536,255669
107,216,382,-4129,3547,255600
-43,263,36,-4091,3633,255614
-17,294,110,-4195,3653,255540
-54,274,-41,-4115,3648,255594
-67,258,68,-4078,3598,255551
6,166,73,-4162,3605,255679
-126,209,96,-4146,3542,255637
8,122,189,-4134,3612,255531
-164,254,-47,-4099,3606,255650
3,172,153,-4187,3584,255519
-183,280,-103,-4046,3590,255602
77,144,249,-4090,3579,255548
-115,258,-3,-4010,3585,255597
162,191,369,-4186,3686,255464
-84,326,-64,-4100,3631,255553
120,341,281,-4059,3657,255511
-25,362,-160,-4045,3637,255565
47,376,295,-4209,3628,255475
59,369,135,-4088,3613,255650
20,391,372,-4117,3625,255575
118,397,231,-4269,3620,255597
-36,498,45,-4132,3634,255563
50,483,-7,-4239,3672,255666
-95,510,-40,-4194,3611,255647
-2,395,74,-4151,3573,255548
-88,396,163,-4073,3584,255631
-7,279,244,-4088,3599,255654
-130,306,277,-4097,3567,255601
-68,240,166,-4156,3635,255503
-243,313,145,-4134,3621,255606
-153,218,14,-4146,3630,255648
-272,213,121,-4151,3527,255611
-190,109,-20,-4219,3652,255568
-241,68,153,-4114,3693,255494
-229,46,-34,-4073,3587,255475
-210,81,62,-4117,3617,255483
-258,86,-308,-4065,3599,255535
-182,64,-15,-4150,3603,255473
-197,-37,-122,-4209,3645,255534
-105,-127,407,-4186,3626,255496
-79,-155,175,-4096,3608,255587
-34,-125,449,-4173,3592,255561
-36,-95,91,-4127,3660,255641
22,-49,318,-4122,3673,255459
8,-33,-59,-4037,3625,255647
106,-39,349,-4065,3658,255615
85,-80,-4,-4127,3628,255685
122,-87,323,-4147,3636,255373
125,-140,20,-4171,3639,255551
90,-153,338,-4176,3649,255549
129,-239,173,-4180,3628,255613
45,-218,392,-4192,3564,255571
117,-281,189,-4168,3613,255575
-3,-222,216,-4080,3564,255613
49,-300,72,-4145,3507,255555
-40,-230,51,-4090,3624,255496
27,-338,-53,-4184,3616,255591
-15,-340,-15,-4157,3599,255564
45,-413,45,-4085,3591,255511
28,-415,154,-4001,3577,255569
83,-493,338,-4129,3553,255646
42,-386,337,-4042,3554,255558
88,-350,349,-4086,3544,255562
34,-279,234,-4106,3538,255564
69,-216,172,-4120,3622,255447
76,-181,132,-4071,3622,255575
50,-167,206,-4059,3527,255551
156,-143,141,-4106,3590,255688
40,-73,121,-4038,3635,255714
195,-83,180,-4150,3641,255559
17,12,135,-4020,3677,255560
181,-18,197,-4132,3628,255591
22,27,130,-4125,3592,255609
143,-11,246,-4128,3612,255504
-22,25,286,-4012,3647,255588
92,-8,251,-4148,3636,255652
-55,92,164,-4033,3654,255582
67,84,58,-4152,3600,255599
-37,144,4,-3985,3584,255627
46,146,-66,-4129,3640,255626
-41,106,129,-4147,3660,255597
-7,39,114,-4214,3622,255652
-62,39,338,-4109,3626,255631
-65,64,56,-4111,3622,255549
-104,64,197,-4071,3613,255500
-134,86,24,-4179,3594,255531
-167,77,274,-4151,3604,255489
-150,70,191,-4041,3571,255578
-154,72,447,-4021,3607,255607
-158,142,211,-4133,3613,255601
-191,240,254,-4140,3677,255483
-192,250,92,-4088,3720,255635
-179,267,221,-4022,3678,255588
-137,304,83,-4078,3554,255601
-136,337,181,-4120,3551,255530
-90,351,97,-4094,3597,255591
-126,399,105,-4110,3548,255593
-81,461,-27,-4132,3525,255638
-139,493,22,-4130,3643,255582
-69,503,-94,-4145,3618,255708
-139,577,-120,-4121,3564,255565
-70,520,-159,-4165,3602,255643
-90,500,44,-4139,3567,255654
2,438,72,-4146,3634,255567
-9,411,200,-4026,3646,255495
59,352,147,-4146,3616,255607
15,372,154,-4094,3571,255527
50,338,-8,-4141,3558,255482
19,318,-38,-4192,3628,255548
59,269,-82,-4189,3606,255666
7,221,23,-4131,3601,255640
25,104,181,-4077,3645,255535
-12,60,390,-4016,3615,255545
-27,28,431,-4141,3592,255493
-48,87,433,-4140,3583,255543
-75,117,211,-4118,3643,255626
-81,159,72,-4123,3628,255529
-101,152,-41,-4093,3621,255585
-77,105,109,-4129,3561,255644
-63,58,188,-4114,3599,255483
-20,33,303,-4071,3659,255590
-13,50,212,-4161,3613,255663
17,106,231,-4173,3590,255701
-4,151,23,-4108,3616,255534
19,205,-92,-4160,3655,255511
21,193,-175,-4107,3657,255572
42,187,-68,-4027,3585,255634
47,162,-33,-4057,3612,255642
29,151,106,-4149,3616,255546
28,110,155,-4137,3615,255594
11,112,140,-4076,3603,255612
1,83,86,-4226,3661,255564
-6,16,34,-4195,3655,255636
-1,-75,117,-4161,3610,255546
15,-124,180,-4065,3614,255514
20,-197,273,-4148,3637,255655
20,-234,287,-4127,3619,255704
5,-291,360,-4111,3569,255681
-10,-333,346,-4136,3666,255557
-12,-380,406,-4166,3592,255660
-8,-422,335,-4100,3558,255617
-36,-433,262,-4027,3611,255630
-56,-366,154,-4099,3669,255593
-123,-310,59,-4163,3702,255627
-122,-289,-49,-4222,3635,255575
-151,-283,-46,-4182,3549,255531
-105,-299,3,-4229,3606,255502
-114,-293,46,-4079,3591,255595
-85,-293,124,-4055,3564,255544
-106,-251,184,-4097,3561,255536
-100,-126,158,-4075,3588,255595
-110,-25,61,-4193,3695,255568
-89,30,-23,-4151,3633,255463
-33,43,-9,-4060,3589,255521
-50,29,158,-4118,3550,255566
33,-102,392,-4059,3519,255658
69,-123,510,-4120,3551,255606
57,-94,464,-4148,3596,255656
17,-18,266,-4103,3613,255631
-17,32,133,-4170,3709,255642
-21,2,70,-4097,3679,255613
-15,-72,144,-4020,3573,255532
-2,-120,253,-4080,3561,255607
-5,-222,396,-4098,3559,255624
-23,-260,421,-4072,3582,255550
-35,-233,372,-4056,3578,255472
-36,-169,170,-4079,3649,255621
-15,-97,19,-4112,3576,255587
9,-47,-117,-4075,3596,255589
45,-3,-90,-4144,3623,255589
69,16,-49,-4095,3564,255571
84,47,90,-4056,3576,255610
101,68,158,-4121,3618,255527
64,134,206,-4140,3574,255614
56,182,230,-4126,3603,255600
44,196,342,-4078,3573,255571
68,247,347,-4070,3621,255656
75,324,304,-4061,3630,255545
68,383,180,-4113,3667,255488
63,437,67,-4114,3656,255608
-22,469,0,-4077,3647,255471
3,421,-40,-4133,3604,255441
13,359,25,-4150,3611,255568
19,317,108,-4143,3565,255636
23,251,85,-4061,3579,255613
23,212,80,-4112,3564,255510
-4,232,47,-4129,3577,255524
-29,245,-49,-4110,3665,255616
-68,280,-165,-4072,3635,255618
-75,275,-191,-4123,3617,255490
-74,219,-147,-4105,3583,255530
-59,161,4,-4094,3563,255470
-62,152,104,-4099,3642,255537
-67,184,169,-4089,3657,255607
-103,281,109,-4097,3652,255599
-141,355,5,-4120,3655,255637
-147,384,-64,-4120,3611,255585
-116,352,22,-4149,3618,255607
-74,312,148,-4080,3603,255553
-24,278,319,-4051,3578,255512
9,246,418,-4123,3585,255505
35,276,389,-4129,3598,255580
49,340,338,-4068,3648,255579
54,405,211,-4080,3661,255542
66,405,128,-4093,3610,255617
79,401,96,-4117,3635,255677
111,345,162,-4152,3667,255547
96,294,304,-4104,3589,255554
105,216,431,-4134,3614,255655
89,164,413,-4141,3626,255628
35,130,373,-4099,3544,255623
-12,104,320,-4139,3571,255519
-68,46,264,-4048,3610,255642
-100,14,203,-4145,3583,255611
-129,-9,118,-4112,3613,255523
-149,-54,5,-4143,3515,255573
-142,-132,-40,-4110,3592,255577
-134,-213,-62,-4191,3572,255534
-120,-244,-21,-4121,3590,255487
-123,-262,43,-4139,3593,255554
-110,-281,105,-4111,3589,255667
-97,-264,46,-4140,3606,255599
-92,-232,62,-4070,3653,255577
-83,-235,101,-4034,3625,255541
-56,-221,158,-4113,3609,255480
-35,-166,146,-4091,3570,255593
-40,-126,-9,-4141,3613,255508
-44,-70,32,-4107,3704,255497
-65,-36,68,-4106,3629,255506
-44,-47,97,-4152,3643,255531
-51,-63,303,-4103,3599,255540
-50,-109,330,-4092,3511,255541
-51,-129,345,-4153,3599,255569
-78,-84,290,-4103,3614,255521
-73,-83,118,-4114,3685,255604
-84,-100,136,-4137,3625,255520
-89,-95,76,-4166,3590,255513
-84,-137,1,-4188,3568,255490
-88,-147,79,-4190,3570,255564
-85,-202,159,-4149,3564,255583
-62,-233,120,-4080,3591,255565
-64,-206,46,-4117,3604,255601
-36,-226,22,-4099,3660,255508
-40,-278,-3,-4148,3604,255531
-24,-276,310,-4096,3615,255602
-3,-274,118,-4102,3544,255620
-22,-253,334,-4114,3557,255492
-12,-217,245,-4178,3571,255606
-86,-140,96,-4161,3570,255641
-3,-185,254,-4117,3670,255540
-56,-158,213,-4143,3536,255494
62,-184,364,-4217,3574,255526
55,-154,293,-4055,3549,255657
80,-37,188,-4071,3553,255527
69,62,158,-4163,3674,255526
4,222,-33,-4164,3640,255577
45,274,133,-4128,3610,255566
23,320,-334,-4116,3675,255523
65,308,61,-4107,3601,255498
107,240,69,-4115,3600,255484
79,212,290,-4091,3520,255570
167,161,539,-4108,3633,255578
132,199,276,-4048,3670,255596
115,233,524,-4102,3703,255556
96,282,56,-4119,3558,255573
47,287,109,-4033,3593,255399
79,243,-89,-4167,3644,255593
-15,202,7,-4076,3655,255527
83,82,184,-4136,3578,255517
-43,89,123,-4036,3561,255573
56,-39,378,-4106,3590,255668
-32,51,380,-4143,3554,255505
47,33,319,-4126,3647,255709
-57,121,-61,-4182,3596,255541
57,128,56,-4155,3621,255512
-105,162,-319,-4071,3626,255603
35,160,71,-4218,3687,255464
-59,91,-156,-4080,3597,255643
49,114,340,-4183,3608,255600
80,77,207,-4155,3629,255631
-67,223,463,-4123,3562,255590
221,156,231,-4130,3640,255623
-106,363,84,-4046,3599,255556
288,357,119,-4325,3736,255514
-124,514,-355,-4045,3663,255662
171,489,17,-4214,3668,255546
-51,547,-210,-4110,3597,255622
20,452,209,-4145,3589,255603
0,459,198,-4020,3623,255633
-35,407,291,-4167,3683,255476
-42,409,112,-4150,3650,255617
-89,425,203,-4213,3610,255605
-126,351,61,-4250,3516,255691
-166,345,70,-4144,3612,255632
-172,243,66,-4104,3647,255551
-231,168,121,-4142,3584,255490
-157,26,295,-4098,3618,255491
-260,-15,60,-4034,3589,255576
-101,-125,296,-4101,3631,255461
-267,-85,79,-4039,3540,255706
-164,-152,213,-4153,3593,255591
-234,-105,-154,-4067,3570,255550
-202,-186,271,-4159,3603,255504
-190,-182,81,-4072,3592,255596
-136,-253,375,-4152,3611,255489
-157,-175,64,-4136,3563,255594
-108,-199,307,-4143,3589,255504
-201,-49,-92,-4157,3592,255487
-78,-44,143,-4126,3612,255566
-134,22,-172,-4080,3579,255622
-15,8,219,-4135,3620,255520
-84,-2,44,-4133,3656,255555
34,-57,378,-4096,3597,255582
34,-80,297,-4180,3624,255553
51,-64,389,-4098,3612,255593
123,-32,231,-4142,3611,255641
80,-12,167,-4116,3634,255572
130,-27,151,-4139,3636,255487
89,-1,177,-4071,3633,255595
122,-49,347,-4180,3584,255506
27,10,156,-4145,3603,255602
81,-101,439,-4094,3653,255515
-6,-50,104,-4026,3600,255549
56,-144,288,-4092,3584,255528
-46,-101,105,-4063,3554,255460
86,-179,41,-4076,3525,255580
-43,-98,-16,-3945,3553,255634
59,-181,-105,-4117,3580,255531
18,-153,11,-4088,3648,255561
52,-200,-60,-4072,3557,255682
80,-203,251,-4102,3566,255608
21,-212,30,-4203,3554,255576
80,-119,222,-4145,3554,255556
-3,-86,-61,-4079,3578,255680
83,11,95,-4101,3562,255557
-46,116,-165,-4081,3626,255536
99,100,161,-4099,3668,255529
-70,197,-117,-3951,3579,255693
90,139,340,-4098,3684,255501
-68,200,179,-4033,3598,255592
138,123,436,-4093,3633,255502
-21,246,328,-4087,3544,255559
147,199,221,-4144,3661,255597
25,243,204,-4106,3622,255606
76,254,-32,-4128,3636,255688
47,191,238,-4011,3611,255578
85,104,-53,-4111,3576,255569
69,39,443,-4099,3610,255541
74,-3,-80,-4236,3611,255663
36,-3,322,-4117,3635,255534
10,6,-135,-4120,3574,255630
-32,9,144,-4075,3601,255541
-55,76,-143,-4166,3562,255548
-74,2,42,-4062,3622,255526
-83,11,6,-4097,3644,255610
-64,-76,251,-4188,3550,255651
-44,-97,380,-4093,3606,255518
-15,-140,355,-4113,3621,255534
-51,-47,345,-4112,3641,255605
-56,1,230,-4179,3703,255591
-110,84,244,-4155,3559,255556
-79,157,99,-4167,3566,255570
-117,215,-22,-4127,3621,255577
-94,200,-19,-4240,3570,255637
-90,216,-60,-4118,3517,255588
-84,137,107,-4081,3612,255607
-59,115,145,-4141,3640,255615
-77,115,416,-4121,3629,255645
-33,151,219,-4101,3588,255550
-168,238,365,-4113,3651,255551
-90,220,-3,-4133,3694,255629
-220,322,293,-4124,3673,255561
-92,212,-3,-4201,3645,255622
-171,183,164,-4139,3620,255540
-65,92,84,-4183,3571,255619
-136,81,276,-4030,3611,255607
-29,10,236,-4159,3574,255654
-136,88,274,-4096,3614,255715
23,49,210,-4121,3617,255513
-127,144,48,-4120,3595,255579
46,92,122,-4174,3608,255547
-124,110,-35,-4091,3527,255600
76,42,180,-4144,3583,255611
-66,68,70,-4089,3550,255630
73,43,174,-4134,3575,255529
16,68,133,-4111,3616,255538
38,117,88,-4125,3637,255596
61,116,52,-4088,3668,255569
24,149,-79,-4137,3640,255600
91,101,65,-4125,3625,255680
23,90,-29,-4126,3538,255633
83,10,273,-4139,3644,255614
71,29,211,-4096,3588,255625
58,-30,392,-4083,3610,255524
96,62,141,-4124,3576,255561
15,73,142,-4131,3622,255667
54,121,-21,-4086,3615,255587
-13,57,90,-4108,3642,255628
49,43,20,-4098,3603,255655
-18,-9,221,-4036,3658,255637
4,3,114,-4192,3616,255535
-49,-16,294,-4111,3652,255578
-52,48,23,-4176,3669,255553
-128,55,137,-4156,3673,255625
-84,97,-59,-4188,3636,255633
-170,79,132,-4113,3605,255565
-84,81,-73,-4238,3556,255643
-179,12,289,-4153,3598,255582
-59,-14,142,-4163,3593,255506
-145,-15,469,-4068,3606,255581
-46,-6,169,-4049,3606,255685
-108,-15,431,-4072,3608,255580
-68,49,47,-4163,3615,255579
-83,9,293,-4085,3666,255552
-44,41,-131,-4100,3610,255530
-67,30,228,-4086,3651,255580
-37,4,-109,-4172,3622,255552
-23,-77,295,-4070,3563,255503
17,-60,3,-4046,3489,255514
35,-114,401,-4157,3549,255442
54,-83,96,-4214,3557,255558
67,-79,435,-4095,3645,255499
77,-65,-75,-4143,3540,255528
110,-71,273,-4130,3565,255557
79,-46,-143,-4112,3599,255690
138,-100,226,-4164,3655,255490
113,-94,-116,-4107,3565,255521
165,-145,384,-4078,3556,255476
143,-135,44,-4089,3581,255610
190,-113,498,-4155,3619,255517
149,-74,80,-4064,3668,255567
135,-20,346,-4082,3648,255553
93,-3,-32,-4118,3668,255628
36,8,209,-4112,3639,255474
69,-67,58,-4103,3635,255498
-12,-5,253,-4099,3619,255479
58,-19,146,-4125,3578,255668
-70,57,24,-4151,3633,255626
11,32,46,-4154,3698,255583
-104,90,-193,-4059,3658,255550
-59,72,92,-4163,3556,255424
-110,76,-182,-4096,3584,255582
-141,92,229,-4071,3588,255505
-69,73,-30,-4159,3548,255531
-212,202,185,-4127,3728,255613
-15,120,205,-4096,3660,255572
-250,277,124,-3989,3565,255562
-47,236,376,-4213,3670,255496
-318,383,33,-3986,3664,255616
-124,316,306,-4126,3620,255592
-315,414,104,-4079,3666,255581
-153,347,63,-4167,3678,255492
-307,373,222,-4009,3591,255638
-53,267,120,-4152,3562,255529
-283,278,78,-4113,3620,255603
11,174,451,-4210,3630,255604
-131,172,22,-4016,3583,255654
-109,177,285,-4106,3592,255608
43,130,232,-4123,3586,255575
-103,149,-159,-4093,3611,255509
-28,172,130,-4151,3685,255644
6,136,86,-4106,3682,255652
64,67,76,-4184,3611,255542
-97,110,-64,-4107,3570,255591
86,44,586,-4135,3582,255571
17,-29,291,-4206,3601,255570
-125,73,289,-4085,3530,255573
87,125,414,-4157,3596,255623
-58,89,430,-4162,3575,255519
28,113,16,-4146,3595,255548
-23,142,15,-4088,3666,255559
14,79,425,-4197,3556,255599
125,-9,500,-4112,3646,255428
-21,5,-226,-4121,3577,255613
52,66,101,-4119,3698,255428
148,47,91,-4138,3545,255503
-10,74,-50,-4120,3666,255451
43,55,-440,-4102,3593,255569
-55,64,-200,-4004,3678,255494
179,-3,196,-4129,3613,255566
-19,-66,-34,-4139,3606,255621
-31,-79,-7,-4111,3620,255719
53,-72,310,-4084,3585,255651
26,-77,-6,-4052,3592,255577
-70,-24,-147,-4060,3615,255530
16,-30,-83,-4245,3579,255525
11,-102,259,-4078,3540,255607
-46,-215,287,-4177,3646,255553
-83,-202,198,-4064,3582,255621
14,-143,367,-4131,3626,255648
17,-109,274,-4060,3524,255538
-92,-65,-86,-4107,3590,255412
54,16,-159,-4186,3604,255536
13,-15,-32,-4102,3702,255553
19,-22,278,-4197,3594,255481
88,-4,224,-4042,3601,255567
-106,-27,374,-4036,3589,255547
31,10,514,-4174,3688,255654
-79,45,468,-4045,3592,255582
98,86,298,-4155,3571,255675
-132,99,332,-4107,3575,255677
-71,129,423,-4167,3611,255463
-37,100,261,-4039,3676,255470
-166,114,52,-4068,3582,255547
54,93,401,-4139,3610,255436
-141,8,226,-4021,3597,255586
140,-11,122,-4121,3631,255570
57,-65,-79,-4111,3595,255563
-24,-46,110,-4191,3621,255512
204,-75,110,-4030,3644,255590
-138,-65,-149,-4119,3682,255500
51,-31,-135,-4148,3572,255512
276,4,-18,-4064,3545,255532
-194,-45,-131,-4194,3630,255561
128,-51,-26,-4112,3627,255553
-24,-144,-37,-4072,3620,255613
14,-97,27,-4254,3551,255541
76,-76,329,-4055,3685,255532
-52,-115,39,-4192,3661,255572
-91,-12,205,-4217,3662,255643
171,34,247,-4114,3642,255617
-155,99,-21,-4190,3576,255493
116,146,34,-4152,3588,255559
-103,59,240,-4019,3631,255637
-114,26,253,-4187,3570,255531
104,83,354,-4006,3578,255503
70,111,324,-4113,3601,255554
3,148,221,-4220,3596,255562
31,217,166,-4025,3540,255632
-82,257,107,-4209,3600,255561
52,263,25,-4237,3576,255539
-116,229,6,-4133,3625,255577
137,191,54,-4176,3604,255563
-89,159,134,-4075,3541,255610
71,174,142,-4085,3551,255570
-70,148,80,-4043,3589,255483
-39,183,152,-4142,3651,255532
33,141,124,-4066,3616,255685
-186,128,163,-3980,3657,255630
193,121,176,-4095,3611,255675
-251,109,80,-4148,3545,255599
122,144,214,-4135,3629,255514
-39,119,210,-4034,3594,255625
-116,116,153,-4252,3648,255490
140,153,248,-4030,3593,255532
-252,144,196,-4078,3627,255655
61,182,216,-4178,3601,255580
-10,154,301,-3921,3599,255525
-194,140,252,-4247,3702,255552
60,151,355,-4198,3644,255599
-117,173,182,-4043,3637,255576
33,228,116,-4297,3658,255538
14,249,158,-4041,3621,255534
-106,252,75,-4137,3654,255479
-41,213,51,-4123,3643,255440
-188,211,117,-4025,3557,255506
-113,181,128,-4072,3615,255498
-165,171,141,-4087,3564,255633
-156,167,71,-4149,3571,255570
-168,187,68,-4139,3571,255649
-232,176,19,-4196,3541,255616
-194,163,92,-4132,3620,255581
-187,115,66,-4107,3609,255657
-189,74,27,-4196,3598,255666
-131,56,86,-4145,3669,255620
-170,-11,28,-4149,3629,255587
-90,-29,186,-4112,3606,255589
-72,-100,165,-4097,3594,255619
-99,-80,168,-4133,3645,255571
-15,-123,168,-4193,3635,255531
-106,-107,87,-4064,3621,255600
18,-138,142,-4122,3609,255619
-28,-84,24,-4112,3592,255566
25,-111,153,-4106,3614,255493
20,-71,31,-4119,3529,255628
32,-90,223,-4130,3559,255552
21,-49,165,-4098,3601,255613
70,-69,337,-4116,3548,255546
32,-38,149,-4044,3569,255516
92,-46,324,-4122,3558,255426
56,-77,93,-4114,3521,255527
98,-19,262,-4116,3651,255556
96,-94,26,-4120,3574,255609
105,-63,197,-4149,3614,255587
107,-130,49,-4159,3648,255560
98,-111,258,-4083,3558,255577
86,-138,77,-4133,3552,255565
96,-104,270,-4180,3573,255458
69,-124,53,-4110,3650,255480
96,-108,156,-4111,3599,255594
35,-122,-22,-4095,3630,255602
11,-79,138,-4166,3609,255571
-3,-132,65,-4123,3638,255661
-28,-71,177,-4129,3615,255584
-44,-103,165,-4077,3678,255578
55,-114,119,-4173,3604,255541
-49,-104,314,-4149,3615,255571
31,-71,83,-4130,3587,255552
-41,-16,332,-4127,3659,255530
22,-60,-162,-4147,3609,255586
-50,9,290,-4094,3572,255632
68,-48,-111,-4213,3628,255625
27,-33,469,-4100,3587,255505
98,1,29,-4133,3604,255618
54,95,398,-4139,3555,255583
83,166,-2,-4112,3570,255596
16,164,149,-4048,3602,255529
17,219,-20,-4039,3592,255497
5,191,128,-4079,3567,255480
18,228,68,-4116,3545,255569
73,154,121,-4126,3592,255511
46,208,187,-4134,3554,255328
115,117,266,-4226,3545,255606
3,162,364,-4094,3594,255529
55,131,275,-4144,3591,255551
-89,204,210,-4033,3598,255552
15,198,-57,-4097,3656,255609
-111,199,110,-4064,3634,255599
-5,152,-169,-4113,3592,255498
-50,70,238,-4002,3636,255604
-66,70,-9,-4073,3533,255686
-21,15,284,-4091,3568,255715
-145,21,173,-4143,3529,255686
-107,34,126,-4188,3569,255560
-187,61,199,-4122,3630,255499
-228,109,-131,-4159,3646,255476
-235,139,167,-4148,3672,255448
-281,108,-241,-4184,3604,255630
-231,102,262,-4193,3599,255549
-265,36,2,-4156,3569,255551
-245,102,448,-4117,3591,255571
-199,90,214,-4177,3594,255656
-283,228,150,-4179,3634,255558
-144,248,174,-4102,3641,255497
-296,260,-12,-4071,3551,255655
-151,304,140,-4033,3647,255607
-171,225,-7,-4084,3617,255576
-72,226,252,-4076,3581,255482
11,196,247,-4091,3617,255507
-28,239,153,-4130,3599,255589
102,231,139,-4133,3589,255586
-48,273,-15,-4056,3606,255556
107,262,6,-4073,3634,255663
16,208,-12,-4124,3612,255582
126,147,47,-4085,3581,255554
145,6,388,-4149,3630,255713
65,-45,345,-4144,3547,255692
151,-104,580,-4081,3609,255621
-53,-91,341,-4104,3596,255568
152,-120,202,-4094,3678,255560
-4,-22,287,-4120,3616,255601
140,-31,-177,-4031,3649,255581
96,-48,106,-4089,3643,255591
76,-40,91,-4065,3530,255562
209,-158,186,-3979,3511,255521
6,-95,331,-4093,3532,255595
223,-72,248,-4106,3650,255663
18,-47,50,-4148,3656,255524
111,84,53,-4116,3656,255533
76,17,-27,-4056,3672,255549
-8,73,-230,-4074,3653,255464
169,91,305,-4123,3664,255521
-42,3,-99,-4126,3642,255590
149,68,203,-4118,3643,255555
25,55,230,-4125,3556,255646
66,21,93,-4130,3542,255462
75,82,151,-4090,3638,255598
-43,78,93,-4128,3600,255590
148,50,19,-4152,3616,255518
-89,63,164,-4080,3666,255532
69,37,109,-4086,3587,255520
46,3,145,-4139,3622,255552
-30,-53,148,-4144,3670,255616
99,-52,109,-4058,3610,255680
-96,-135,21,-4072,3534,255600
123,-204,204,-4101,3571,255497
-16,-194,166,-4047,3616,255552
55,-216,239,-4068,3608,255529
96,-182,390,-4097,3641,255645
-21,-200,126,-4141,3676,255549
167,-169,264,-4138,3719,255536
-30,-121,140,-4083,3616,255558
181,-230,199,-4144,3620,255508
31,-137,217,-4104,3608,255554
171,-142,134,-4088,3559,255481
126,-91,151,-4118,3550,255484
38,-49,133,-4101,3579,255551
137,23,204,-4101,3618,255590
-14,82,71,-4082,3618,255708
47,89,92,-4190,3581,255629
-52,203,17,-4187,3611,255656
-10,161,119,-4076,3586,255553
-9,151,102,-4078,3599,255613
-70,227,196,-4080,3535,255537
-21,185,253,-4101,3581,255564
-198,276,133,-4166,3594,255581
-67,315,83,-4088,3632,255512
-190,258,158,-4065,3649,255597
-197,244,163,-4037,3546,255667
-181,189,146,-4083,3625,255614
-274,192,160,-4135,3588,255613
-152,199,128,-4119,3544,255566
-336,238,211,-4177,3585,255553
-190,158,156,-4204,3631,255560
-350,168,105,-4118,3560,255512
-295,179,106,-4155,3548,255550
-309,118,100,-4104,3619,255572
-349,109,36,-4098,3556,255605
-206,75,68,-4083,3571,255499
-395,53,79,-4127,3575,255612
-163,37,37,-4209,3563,255526
-255,51,206,-4106,3669,255605
-229,15,-13,-4129,3641,255588
-159,52,346,-4086,3657,255604
-255,46,21,-4111,3617,255559
-56,26,289,-4183,3640,255492
-153,116,-101,-4191,3606,255469
-94,167,260,-4140,3579,255507
-74,157,-38,-4133,3607,255641
-117,210,408,-4062,3628,255367
-10,183,74,-4108,3598,255496
-58,157,479,-4086,3612,255424
-54,175,263,-4148,3579,255670
41,150,449,-4153,3610,255467
-81,188,179,-4131,3596,255558
161,106,359,-4184,3635,255552
-57,199,103,-3999,3596,255553
209,76,167,-4239,3547,255566
-35,141,90,-4069,3605,255464
265,-23,172,-4188,3649,255508
52,-15,182,-4060,3619,255562
324,-103,262,-4160,3606,255534
168,-191,197,-4090,3569,255626
297,-162,311,-4204,3593,255520
195,-170,108,-4028,3616,255595
226,-113,70,-4176,3633,255575
198,-120,-78,-4071,3638,255588
182,-71,-79,-4043,3562,255615
215,-176,40,-4092,3668,255577
129,-93,-91,-4089,3628,255513
308,-253,255,-4143,3666,255607
127,-58,-166,-4065,3511,255711
330,-199,354,-4225,3666,255699
127,33,-254,-4140,3637,255639
324,-81,318,-4141,3583,255609
141,141,-278,-4064,3613,255602
211,134,24,-4251,3693,255497
175,176,19,-4212,3623,255561
117,184,-170,-4114,3612,255469
154,109,237,-4102,3650,255553
79,185,-28,-4155,3544,255586
152,142,388,-4143,3613,255602
62,122,329,-4203,3612,255706
82,206,127,-4150,3606,255616
-31,137,596,-4182,3577,255654
31,152,-50,-4218,3605,255657
-160,142,224,-4108,3620,255508
13,46,22,-4129,3607,255650
-260,49,-107,-4046,3556,255427
-50,-127,433,-4075,3528,255588
-170,-183,-169,-4001,3585,255651
-201,-221,560,-4215,3603,255556
-34,-230,265,-4110,3618,255636
-378,-151,-36,-4064,3638,255560
-80,-189,424,-4261,3715,255449
-351,-107,-537,-3945,3549,255626
-217,-140,474,-4115,3624,255569
-156,-136,-338,-4168,3528,255635
-400,-87,249,-4053,3542,255332
3,-117,312,-4170,3582,255579
-431,-13,37,-4074,3566,255578
-96,12,690,-4190,3601,255497
-242,75,-68,-3980,3608,255672
-353,161,510,-4221,3702,255600
-28,164,130,-4155,3620,255565
-490,243,71,-3981,3522,255395
-15,244,485,-4344,3679,255423
-339,339,-189,-4038,3596,255609
-242,328,530,-4108,3581,255568
-55,361,-125,-4210,3681,255616
-358,303,280,-4052,3525,255515
35,350,130,-4076,3598,255596
-226,273,50,-4035,3647,255598
-121,290,86,-4172,3607,255544
80,246,183,-4016,3626,255588
-255,144,-73,-4147,3573,255600
185,197,443,-4228,3545,255407
-101,18,-27,-3862,3539,255657
-9,177,291,-4237,3608,255591
275,-59,80,-4147,3601,255526
-279,116,-245,-3965,3567,255544
517,-115,410,-4345,3678,255496
-239,-39,-393,-4001,3553,255630
396,-133,778,-4129,3570,255592
47,-75,-296,-4038,3674,255629
49,-38,632,-4333,3648,255350
331,-90,-91,-4028,3594,255709
-150,76,256,-4084,3655,255565
431,-45,252,-4414,3666,255473
-119,168,-37,-3892,3583,255514
337,19,343,-4169,3650,255586
-22,262,-103,-4104,3588,255583
244,80,325,-4244,3663,255616
-48,301,-98,-4023,3502,255729
269,118,458,-4193,3681,255709
-109,231,-230,-4089,3674,255646
244,146,575,-4251,3621,255450
-88,108,-105,-3941,3604,255696
94,143,580,-4117,3597,255557
108,32,164,-4176,3621,255640
-149,221,133,-4121,3518,255551
259,56,289,-4053,3624,255667
-302,206,-203,-4072,3610,255606
297,19,469,-4233,3601,255514
-239,129,-264,-3852,3563,255643
167,12,410,-4222,3624,255476
-92,67,-225,-4017,3597,255572
-44,-23,84,-4134,3546,255469
7,-3,107,-4095,3523,255648
-62,-125,82,-4186,3631,255589
-15,-73,108,-4141,3559,255501
34,-150,141,-4051,3618,255492
-48,-96,-193,-4053,3602,255543
26,-116,340,-4120,3663,255520
43,-160,-140,-4082,3662,255610
-89,-34,76,-4006,3631,255493
153,-91,333,-4138,3662,255624
-112,-14,-238,-4109,3636,255504
126,-65,520,-4107,3583,255415
54,-51,33,-4091,3568,255557
79,-5,195,-4192,3611,255522
105,47,271,-4032,3559,255519
54,90,-32,-4094,3621,255621
105,151,119,-4148,3698,255525
-13,142,98,-4098,3597,255597
165,90,328,-4118,3594,255640
89,27,88,-4135,3674,255639
-52,78,365,-4095,3559,255542
300,-27,425,-4052,3612,255660
-176,3,-50,-4060,3594,255667
46,64,388,-4249,3530,255410
90,-31,49,-4025,3645,255684
-314,14,-117,-4145,3640,255472
54,42,150,-4190,3614,255464
-278,-38,112,-3926,3516,255720
-132,-57,238,-4269,3594,255544
-223,-16,-42,-4019,3633,255684
-309,-36,389,-4068,3611,255528
-71,-35,112,-4144,3628,255542
-469,27,-456,-4069,3694,255507
-208,73,319,-4168,3567,255509
-191,-79,226,-4151,3578,255512
-417,26,-57,-4097,3559,255452
-131,22,150,-4094,3634,255627
-473,26,363,-4142,3557,255611
-17,-31,579,-4243,3569,255621
-401,37,-439,-3935,3643,255708
-338,138,144,-4266,3553,255616
18,123,451,-4208,3625,255551
-369,123,-147,-4065,3528,255591
-181,199,-415,-4228,3582,255500
-219,281,345,-4121,3620,255531
2,192,608,-4125,3714,255481
-190,231,-240,-4021,3597,255613
-276,252,-56,-4081,3716,255539
93,332,738,-4159,3613,255612
-35,163,348,-4123,3655,255549
-269,294,-480,-4066,3667,255575
112,337,363,-4090,3638,255555
68,238,490,-4066,3618,255546
46,170,-22,-4074,3587,255592
-26,187,-349,-4054,3737,255687
266,129,630,-4112,3602,255612
290,-67,493,-4088,3641,255590
47,-23,-162,-4058,3575,255645
229,-38,192,-4235,3700,255535
205,-32,376,-4098,3560,255663
240,-65,223,-4175,3656,255600
70,-62,-319,-4142,3632,255632
230,-64,105,-4209,3660,255505
243,-113,402,-4091,3609,255600
178,-168,-12,-4074,3620,255582
99,-129,-85,-4077,3657,255527
245,-132,428,-4070,3570,255608
227,-149,451,-4114,3628,255594
139,-78,51,-4105,3610,255529
180,25,17,-4098,3679,255550
198,94,332,-4069,3625,255708
232,82,220,-4084,3626,255620
69,180,-271,-4094,3579,255630
158,196,4,-4124,3703,255498
143,116,327,-4169,3615,255506
100,130,181,-4122,3698,255529
85,159,-54,-4119,3588,255438
33,157,206,-4056,3573,255511
115,154,369,-4122,3608,255604
-5,195,-89,-4131,3657,255624
-76,224,-226,-4161,3665,255658
-36,160,99,-4121,3661,255737
-80,105,263,-4138,3573,255551
-58,36,49,-4135,3657,255560
-166,41,166,-4079,3605,255533
-4,35,495,-4139,3505,255540
-104,46,203,-4094,3594,255507
-197,62,33,-4143,3614,255554
-68,65,92,-4158,3611,255502
-150,44,178,-4123,3490,255534
-149,30,8,-4144,3577,255595
-216,44,0,-4112,3613,255581
-156,39,265,-4113,3685,255580
