Vx,Vy,Vz,Ax,Ay,Az
-15,44,97,986,1551,258318
-48,-36,127,1015,1581,258319
-73,-56,192,1010,1552,258260
-43,-22,276,1052,1603,258395
-92,-15,230,1004,1645,258352
-95,-15,176,1012,1617,258347
-126,23,82,1088,1691,258314
-151,40,-7,1078,1658,258234
-170,-14,-1,1093,1595,258330
-175,-55,17,1042,1583,258291
-180,-54,61,1059,1536,258336
-141,-59,133,1080,1588,258496
-128,-96,127,1134,1618,258358
-102,-49,108,1089,1728,258405
-87,15,36,1062,1758,258385
-128,23,-28,1039,1627,258384
-135,-7,-2,955,1702,258328
-126,-90,39,1028,1659,258287
-137,-122,112,1021,1586,258239
-96,-113,193,1071,1532,258323
-81,-134,198,1012,1577,258306
-85,-106,179,989,1568,258267
-64,-49,112,999,1611,258310
-55,15,76,1030,1584,258347
-29,12,80,1077,1598,258438
-34,-41,128,1023,1549,258331
2,-41,235,1016,1545,258336
42,-18,292,1049,1580,258322
45,-18,259,1082,1635,258320
64,-6,184,1040,1653,258266
89,9,68,1056,1616,258319
109,10,2,985,1605,258260
116,-30,-33,947,1581,258269
86,-22,12,1024,1545,258229
126,-19,76,1088,1572,258403
149,-2,112,1016,1649,258394
164,3,95,1019,1622,258311
196,28,80,1001,1592,258245
180,63,-13,1035,1587,258287
166,74,0,1028,1634,258354
165,9,9,1059,1632,258368
136,-42,116,1098,1624,258223
158,-23,226,986,1573,258227
168,3,255,1015,1608,258327
173,-11,254,1037,1640,258298
177,8,212,1005,1668,258268
130,51,79,1013,1634,258234
115,76,64,991,1672,258348
71,34,38,976,1635,258340
30,-20,89,968,1564,258418
27,-27,248,1027,1614,258418
51,-37,265,1050,1631,258333
48,-18,268,1057,1658,258299
53,26,231,979,1678,258246
40,52,75,997,1698,258196
27,86,11,994,1606,258248
1,62,-44,1012,1568,258322
-59,-18,-22,1009,1575,258311
-50,-68,155,1028,1570,258278
-65,-85,169,1058,1598,258284
-81,-66,212,1047,1644,258305
-64,-49,256,1042,1604,258354
-98,-34,100,974,1604,258384
-114,-16,95,995,1644,258303
-87,-77,53,1036,1593,258246
-115,-123,52,1013,1544,258232
-119,-111,191,1038,1627,258273
-99,-152,176,1063,1597,258273
-110,-181,181,1045,1566,258280
-120,-113,190,1017,1599,258218
-110,-79,21,983,1594,258360
-135,-112,-21,939,1624,258335
-110,-124,12,1059,1631,258356
-119,-128,-6,1038,1593,258285
-110,-116,118,1001,1578,258319
-67,-123,203,1009,1621,258339
-67,-105,173,992,1642,258336
-57,-47,147,960,1600,258346
-44,-28,56,955,1658,258340
-47,-60,-48,988,1705,258394
-52,-58,-56,1040,1631,258261
-39,-61,6,1041,1669,258271
-3,-63,92,1022,1581,258339
25,-65,166,988,1528,258339
44,-49,181,1053,1615,258238
82,-38,190,1056,1599,258241
64,42,146,1069,1570,258326
88,90,77,988,1619,258326
61,78,110,1004,1648,258317
46,48,145,1070,1596,258358
51,41,231,1046,1581,258357
73,12,277,964,1556,258356
84,-16,277,977,1577,258269
105,29,231,1047,1617,258311
76,89,158,1078,1619,258325
79,68,60,1026,1515,258267
53,58,123,987,1559,258192
30,66,150,1012,1599,258292
42,71,229,1032,1637,258385
61,19,299,966,1606,258404
45,6,303,944,1582,258332
57,73,206,981,1634,258342
60,103,71,1089,1589,258305
29,57,-27,1075,1483,258293
-5,12,-34,1039,1545,258278
-32,-2,-17,1039,1616,258327
0,-21,90,1000,1639,258345
16,-40,163,1012,1586,258363
-1,-18,146,1034,1579,258271
-28,23,111,1062,1585,258308
-44,15,-1,1017,1651,258400
-91,10,-66,1105,1656,258313
-83,-26,-46,1017,1609,258266
-123,-67,-45,1011,1626,258371
-77,-71,103,992,1615,258316
-55,-110,201,976,1611,258337
-69,-123,192,1062,1601,258399
-15,-25,214,1055,1580,258313
-39,33,111,1099,1622,258280
-44,19,40,1062,1625,258296
-49,-50,59,1078,1615,258294
-49,-91,54,1042,1642,258384
-42,-47,196,1062,1569,258334
-17,-65,191,1067,1611,258378
-6,-51,183,1013,1581,258269
-1,-5,221,1054,1600,258303
-17,41,44,1067,1642,258372
47,101,-29,1020,1608,258259
13,91,-27,1035,1588,258274
-10,48,-83,1074,1569,258359
36,53,121,1068,1579,258244
68,22,141,961,1590,258317
63,32,98,996,1613,258417
52,81,148,964,1611,258454
43,88,11,937,1598,258429
65,103,-29,1012,1603,258376
29,130,-25,1025,1582,258260
1,108,8,1042,1641,258361
41,72,140,1016,1591,258355
56,60,206,1038,1587,258400
89,85,231,1083,1567,258446
83,97,245,1111,1549,258342
54,88,125,1033,1568,258322
65,90,103,998,1581,258353
61,85,59,1062,1536,258240
29,49,97,959,1576,258199
39,13,236,1014,1583,258206
76,0,281,1076,1597,258415
34,53,261,1065,1702,258430
44,127,228,997,1664,258298
14,103,139,1046,1590,258230
-19,74,139,1024,1630,258336
-33,54,143,1026,1687,258327
-69,27,204,1017,1718,258301
-88,-28,365,1098,1649,258370
-82,-65,427,1056,1558,258327
-83,-25,405,988,1558,258318
-66,10,388,1023,1658,258295
-105,-9,248,1085,1640,258256
-151,4,124,1105,1616,258335
-153,12,60,1016,1573,258413
-197,-37,90,1059,1658,258273
-217,-88,177,1027,1631,258294
-206,-71,220,1001,1625,258351
-207,-22,206,1046,1635,258374
-215,6,137,943,1577,258364
-215,14,40,1006,1546,258348
-234,30,-59,1063,1633,258312
-246,45,-84,1061,1604,258259
-262,21,-56,1065,1562,258342
-257,4,75,1008,1571,258292
-243,22,93,1020,1602,258388
-246,58,123,1047,1654,258316
-217,59,85,1057,1616,258362
-210,23,-4,1013,1618,258431
-192,52,-108,1032,1629,258296
-169,50,-140,1137,1557,258317
-157,11,-96,1120,1629,258329
-140,3,-28,1052,1600,258286
-120,41,80,1081,1635,258251
-127,94,127,1035,1603,258206
-101,128,138,1072,1619,258288
-105,111,60,1106,1648,258312
-103,123,66,1003,1632,258257
-65,104,48,987,1595,258317
-54,71,102,1042,1593,258354
-19,11,199,1059,1560,258413
-3,11,278,1010,1610,258254
40,52,294,1055,1554,258383
29,91,328,971,1585,258341
42,90,212,980,1637,258233
47,121,169,994,1661,258212
55,103,172,1031,1675,258268
53,38,206,1085,1639,258290
79,-35,334,992,1621,258396
117,-37,383,1041,1622,258286
146,19,366,1050,1565,258277
156,41,324,1036,1658,258322
145,16,204,968,1685,258351
120,40,127,967,1658,258243
116,88,85,954,1673,258352
96,27,112,1022,1693,258356
114,-31,208,1030,1644,258270
115,-2,200,1080,1496,258275
93,91,179,1036,1563,258288
88,99,116,967,1609,258307
108,75,-32,1044,1586,258317
103,99,-129,1066,1588,258259
34,110,-183,1061,1638,258288
81,57,-117,1001,1603,258292
85,35,-17,1044,1638,258296
107,72,-38,1096,1619,258307
109,137,43,1063,1657,258280
118,93,-8,984,1564,258297
134,103,-49,979,1551,258362
95,111,-73,998,1592,258343
87,30,-99,981,1595,258346
100,-75,16,968,1611,258381
78,-157,140,1032,1626,258371
113,-187,194,1029,1564,258329
76,-71,330,1112,1598,258244
101,63,261,1069,1611,258265
114,64,188,1099,1636,258215
68,-10,195,1158,1633,258238
100,-3,140,1074,1599,258348
120,5,168,1064,1646,258254
126,-87,246,1048,1647,258255
141,-127,310,990,1558,258229
129,-28,361,958,1632,258275
113,72,268,1085,1627,258368
105,39,190,1069,1638,258385
53,8,107,1040,1574,258342
90,15,99,1022,1512,258332
57,0,47,1053,1639,258406
102,-25,121,1055,1607,258314
80,-99,155,1026,1638,258359
67,-80,179,964,1603,258350
93,-47,96,1036,1601,258354
92,-46,5,1010,1630,258295
36,-99,-14,1019,1648,258302
75,-96,-3,1032,1553,258349
101,-44,-14,1028,1615,258385
90,-13,38,961,1630,258302
80,-25,135,1011,1579,258300
87,-90,88,988,1599,258337
69,-57,150,1047,1610,258300
43,-2,41,1011,1615,258325
22,-14,-43,1020,1613,258320
8,-53,6,1080,1616,258310
-21,-93,8,995,1643,258390
-13,-69,31,986,1603,258364
-11,-67,98,1097,1556,258369
-32,-64,111,993,1632,258331
-35,-31,87,1020,1605,258253
-42,4,22,1014,1605,258320
-47,10,-19,996,1644,258288
-51,-4,39,965,1599,258331
-90,-56,54,970,1593,258328
-57,-61,208,949,1605,258281
-35,-61,308,1011,1674,258381
-31,-61,295,1004,1643,258437
-17,-51,335,1055,1621,258414
-89,-21,206,1054,1616,258372
-113,14,166,934,1665,258292
-110,-31,175,981,1595,258192
-151,-105,188,992,1571,258248
-148,-149,323,999,1564,258247
-152,-164,348,1082,1582,258335
-171,-183,335,1077,1581,258237
-189,-169,325,1058,1608,258267
-204,-147,141,1025,1626,258302
-196,-153,119,963,1585,258298
-225,-186,81,966,1577,258335
-225,-201,21,1035,1572,258252
-198,-185,169,1045,1624,258266
-204,-202,177,975,1557,258472
-188,-185,147,1055,1596,258310
-201,-151,149,1079,1597,258346
-216,-136,14,1014,1563,258416
-228,-105,-26,968,1603,258296
-235,-118,-59,1039,1636,258326
-245,-176,-87,1002,1583,258308
-242,-175,49,975,1532,258319
-219,-138,98,1048,1640,258343
-204,-87,120,1061,1616,258335
-213,-68,155,1006,1557,258371
-218,-69,71,1051,1605,258441
-231,-50,45,970,1615,258401
-201,-87,50,1055,1629,258277
-201,-138,68,1079,1695,258374
-181,-129,166,987,1671,258329
-135,-100,177,988,1624,258332
-128,-105,182,994,1568,258390
-121,-49,193,869,1622,258400
-158,-2,79,1045,1680,258328
-159,34,43,1021,1625,258369
-164,-7,56,1040,1609,258314
-184,-63,63,1023,1636,258309
-134,-67,181,1042,1687,258390
-76,-63,245,1076,1687,258384
-69,-37,265,1058,1622,258323
-47,4,276,964,1646,258252
-70,-8,188,1025,1634,258364
-47,52,206,993,1627,258323
-35,67,160,1052,1608,258297
-55,26,175,1015,1628,258296
-14,8,311,1025,1545,258337
27,10,337,1077,1592,258341
24,19,292,1125,1535,258341
47,19,297,1030,1611,258250
12,42,100,1019,1614,258268
39,92,49,1030,1637,258220
11,50,50,956,1642,258161
35,-21,-28,917,1585,258261
34,-11,88,1005,1542,258318
84,-3,121,1058,1569,258335
84,13,106,1060,1620,258403
87,28,56,1046,1654,258324
110,54,-36,1069,1559,258294
81,55,-112,1007,1600,258266
92,4,-138,1020,1592,258185
105,-59,-132,1031,1593,258249
144,-80,-9,1046,1618,258303
165,-71,94,1019,1625,258393
195,-63,110,1016,1602,258285
206,-24,134,1060,1600,258327
171,-26,38,1072,1616,258292
170,2,27,1029,1645,258181
187,-20,8,1023,1640,258267
175,-58,39,1043,1662,258356
216,-73,164,1065,1534,258371
230,-62,246,1038,1550,258361
225,-48,258,1049,1621,258337
240,-5,251,1067,1620,258261
180,42,187,1043,1613,258310
176,105,100,1042,1711,258342
187,123,84,1049,1574,258363
150,58,40,1005,1584,258421
177,42,182,1034,1599,258354
239,11,204,1057,1584,258278
215,46,258,999,1568,258322
214,41,244,981,1605,258296
170,68,164,1037,1573,258353
160,121,108,973,1541,258380
130,117,63,1002,1621,258376
87,89,47,1026,1570,258335
120,88,155,1074,1605,258202
136,74,162,1070,1647,258233
124,94,197,1020,1637,258394
118,137,242,1030,1661,258448
74,152,96,1016,1572,258334
65,194,112,1012,1595,258270
48,190,97,965,1612,258333
17,161,40,1009,1634,258320
23,162,183,973,1562,258120
51,156,213,1036,1569,258289
39,191,171,1069,1651,258309
16,230,188,1098,1636,258379
-26,217,51,1102,1658,258398
-70,231,-12,1010,1630,258321
-70,240,-35,1004,1629,258303
-83,174,-54,971,1693,258389
-68,143,114,1005,1572,258219
-51,142,83,1060,1569,258342
-40,159,91,1009,1619,258374
-63,148,107,1008,1604,258303
-107,150,-6,1058,1607,258425
-121,170,-51,1099,1609,258270
-132,140,-8,1085,1571,258286
-158,74,-6,1104,1639,258387
-110,61,156,1027,1558,258302
-76,24,190,1065,1600,258319
-78,-10,226,1100,1580,258324
-90,10,246,1043,1590,258342
-120,19,76,1011,1697,258341
-147,49,72,1053,1605,258281
-169,67,38,1032,1616,258386
-207,53,28,1080,1690,258388
-172,28,170,1027,1656,258298
-141,-37,215,1031,1640,258303
-146,-43,230,1049,1586,258245
-129,-51,221,996,1546,258330
-180,-69,157,1004,1568,258444
-204,-55,85,953,1589,258364
-222,-27,22,1053,1634,258258
-224,-26,48,1019,1602,258282
-201,-8,218,1014,1643,258375
-156,-9,239,1057,1608,258339
-179,15,276,1039,1602,258231
-191,38,295,1025,1641,258251
-217,42,202,995,1603,258286
-219,44,131,1045,1535,258359
-226,50,112,1052,1651,258383
-222,43,124,1035,1640,258372
-212,34,230,1006,1635,258360
-149,-6,250,1049,1585,258268
-154,18,270,994,1620,258201
-155,74,236,1019,1652,258257
-192,116,165,982,1673,258286
-212,102,107,1014,1670,258373
-199,64,73,1075,1548,258328
-218,59,131,1007,1586,258268
-128,57,203,948,1642,258350
-103,30,219,1002,1544,258277
-90,24,241,1043,1564,258388
-71,48,196,974,1618,258298
-83,85,89,1086,1624,258302
-82,135,62,1119,1600,258375
-101,137,48,1049,1611,258403
-109,127,72,1043,1657,258270
-44,82,172,1000,1682,258300
40,46,195,1037,1591,258409
40,53,228,1033,1599,258354
75,84,122,1093,1597,258291
50,56,78,1071,1557,258369
31,16,-9,1117,1583,258228
36,8,-51,1048,1641,258226
8,20,22,1031,1642,258345
43,-38,99,1058,1621,258386
81,-88,191,1096,1603,258263
67,-69,207,1091,1639,258251
114,-32,129,1018,1604,258288
82,-51,59,1039,1601,258262
86,-67,-23,1036,1634,258289
79,-22,-94,1052,1570,258296
68,8,-52,993,1632,258262
119,-74,41,1077,1611,258408
143,-121,124,1078,1653,258273
146,-75,129,1019,1648,258335
169,-65,152,1012,1632,258343
124,-160,53,1047,1639,258378
143,-155,16,1061,1606,258343
143,-87,0,1105,1570,258330
111,-105,-8,1029,1633,258315
176,-172,133,1064,1632,258308
151,-190,196,1091,1656,258301
168,-131,166,1043,1668,258290
160,-65,230,980,1609,258367
94,-57,130,1026,1605,258297
100,-39,71,1007,1540,258264
49,-43,65,1010,1542,258321
57,-69,65,990,1608,258299
124,-85,194,980,1639,258299
131,-113,246,1018,1601,258296
156,-104,241,1073,1584,258233
142,-43,313,1122,1579,258333
110,-46,178,1015,1688,258328
87,-37,111,998,1646,258346
68,-28,105,957,1565,258351
82,2,50,1036,1613,258313
111,-3,119,1165,1581,258233
138,-29,170,1078,1605,258292
130,-22,165,1062,1605,258244
132,-3,190,1051,1547,258417
110,-41,98,953,1621,258410
108,-60,11,1000,1630,258383
78,-2,10,1017,1588,258365
80,15,-45,1069,1578,258382
131,0,19,1102,1570,258326
123,7,39,1034,1606,258310
114,15,11,988,1573,258407
143,29,-14,1023,1601,258425
116,20,-56,970,1600,258290
98,-15,-98,957,1582,258299
78,-30,-75,1012,1567,258388
53,-50,-17,990,1607,258290
116,-63,103,987,1581,258299
124,-66,155,998,1578,258400
141,-54,222,967,1587,258369
127,-32,207,1000,1578,258297
100,-76,141,999,1578,258306
62,-68,110,1053,1627,258352
39,-73,66,1036,1627,258315
14,-121,101,1060,1642,258333
66,-158,231,1023,1680,258286
75,-171,257,995,1576,258365
52,-145,257,1002,1631,258390
74,-166,222,974,1633,258277
31,-219,150,1043,1597,258302
-3,-183,111,1139,1525,258272
-50,-148,53,1076,1617,258291
-80,-202,105,1019,1653,258312
-69,-227,210,985,1655,258348
-79,-205,254,1015,1665,258328
-117,-194,276,1022,1666,258415
-137,-221,296,971,1569,258364
-184,-213,212,991,1597,258318
-206,-168,134,1083,1506,258350
-241,-176,119,1016,1658,258344
-248,-206,154,1022,1626,258255
-250,-189,238,1027,1540,258312
-261,-111,263,1049,1543,258379
-289,-116,320,1029,1596,258340
-260,-162,281,1028,1551,258348
-301,-126,248,1053,1608,258267
-302,-85,124,983,1633,258309
-294,-71,86,1067,1639,258391
-339,-42,126,974,1649,258374
-263,-42,141,982,1635,258329
-254,-43,192,1033,1574,258242
-260,-22,225,1016,1632,258291
-226,15,127,1011,1582,258284
-268,10,19,1060,1543,258319
-276,17,-29,1044,1584,258311
-269,36,-100,977,1632,258298
-289,35,-116,966,1690,258367
-237,41,-57,978,1583,258378
-218,51,7,1025,1554,258232
-172,73,45,1029,1608,258160
-130,64,44,1048,1564,258312
-161,79,10,1018,1621,258298
-182,101,-1,997,1615,258288
-199,67,30,1000,1608,258343
-181,23,88,1022,1584,258267
-128,67,176,964,1548,258284
-110,79,199,1010,1541,258230
-64,46,222,966,1562,258253
-15,34,228,1034,1566,258369
-20,61,110,1025,1526,258351
-24,52,38,1069,1676,258285
-40,51,95,1046,1635,258327
-40,47,101,953,1543,258340
10,66,166,950,1641,258322
8,64,260,996,1633,258432
34,86,280,1001,1596,258312
62,97,227,1006,1557,258389
48,74,156,1020,1604,258370
49,76,121,1008,1566,258298
37,82,112,1000,1680,258180
33,56,115,988,1686,258360
53,64,248,1012,1604,258280
56,78,305,980,1577,258321
68,85,340,954,1578,258325
64,61,336,1012,1603,258261
53,26,242,1044,1578,258391
30,24,159,1024,1593,258309
30,7,165,1000,1616,258363
36,-67,131,1096,1590,258292
65,-81,217,1024,1563,258353
87,-58,210,989,1613,258338
86,-24,205,1032,1691,258332
105,3,158,949,1666,258379
64,22,44,996,1582,258323
18,45,-53,995,1638,258273
13,54,-52,1023,1567,258355
5,33,-75,1102,1654,258287
15,70,7,1040,1579,258341
34,98,75,1010,1621,258322
37,87,94,1067,1685,258372
48,88,125,979,1663,258372
16,101,11,1033,1665,258347
-9,132,5,1071,1649,258318
-10,124,-18,987,1648,258318
-20,130,15,1058,1575,258234
-13,160,108,1095,1579,258344
21,169,199,1068,1657,258311
30,159,216,1044,1641,258305
72,144,241,1108,1672,258164
50,114,157,1082,1661,258273
25,128,138,995,1569,258279
29,123,105,955,1643,258311
9,88,56,1026,1629,258295
29,88,140,1012,1620,258301
38,116,154,1018,1631,258396
49,122,108,975,1685,258370
37,124,106,1000,1703,258362
46,120,30,1001,1646,258447
26,119,-15,1071,1635,258313
40,82,-13,1070,1598,258372
37,61,0,1076,1597,258350
44,61,92,1077,1615,258267
72,76,149,1028,1673,258323
78,70,183,1051,1635,258310
78,54,158,1080,1563,258348
55,48,117,1025,1582,258372
36,41,93,944,1623,258294
7,41,103,963,1526,258390
22,11,120,966,1567,258380
28,-3,209,978,1677,258316
44,9,219,1031,1636,258273
43,35,210,1040,1645,258248
50,25,156,980,1651,258306
35,18,54,962,1717,258409
9,45,57,1085,1642,258270
-21,33,26,1085,1645,258332
-37,11,26,1061,1571,258346
-30,-5,127,1051,1584,258353
-4,-39,159,1025,1635,258297
-8,-56,168,1072,1594,258244
15,-27,150,1065,1576,258224
-34,-12,32,1032,1639,258378
-50,-27,27,1036,1657,258330
-30,-42,57,1094,1681,258250
-74,-28,50,1102,1606,258276
-88,19,195,987,1632,258270
-79,25,268,1055,1600,258328
-89,35,294,1010,1583,258340
-85,75,307,958,1636,258354
-118,93,225,1035,1584,258312
-120,137,207,1073,1582,258306
-117,146,162,1023,1547,258318
-127,121,127,996,1604,258348
-115,123,256,1016,1645,258301
-65,139,266,1000,1672,258313
-75,177,213,1033,1706,258362
-84,184,172,1027,1652,258353
-90,153,115,988,1596,258337
-74,131,78,1021,1591,258328
-84,98,24,1046,1540,258365
-80,74,4,1102,1566,258272
-35,66,72,1115,1635,258328
-9,74,78,1034,1641,258347
-6,61,88,995,1664,258305
10,67,64,1056,1610,258304
-13,97,-9,1077,1652,258267
-13,89,13,1037,1680,258255
-9,16,-18,1009,1632,258319
-35,-9,24,1046,1580,258305
-33,-12,108,1036,1484,258370
29,-19,145,1019,1596,258296
45,-16,188,985,1607,258302
48,-7,157,985,1585,258460
20,-8,92,1048,1568,258397
27,-15,111,1001,1631,258330
28,-3,122,1018,1612,258322
-25,-28,86,1001,1594,258279
13,-63,210,1056,1593,258286
55,-74,224,1026,1638,258367
43,-49,179,1022,1567,258390
60,-78,123,1070,1663,258352
45,-79,126,1041,1671,258346
50,-65,52,1031,1677,258318
52,-91,20,1000,1643,258346
25,-153,84,960,1578,258374
40,-151,174,1036,1600,258351
47,-121,220,1030,1652,258330
38,-114,232,1004,1604,258428
16,-109,245,1065,1610,258400
-37,-90,156,1116,1650,258352
-17,-99,130,1062,1620,258340
15,-121,114,1018,1586,258349
-10,-143,156,1050,1573,258435
31,-143,226,1084,1616,258274
49,-139,243,1057,1683,258319
49,-131,230,1058,1593,258340
51,-107,113,1003,1558,258272
28,-92,45,1018,1608,258312
31,-111,-17,1103,1614,258237
78,-129,-56,1032,1623,258307
39,-133,-37,1075,1674,258309
74,-136,84,1026,1649,258205
98,-171,75,1082,1613,258322
124,-151,85,1033,1590,258335
100,-91,73,1090,1630,258253
96,-73,-16,1057,1660,258434
99,-42,-44,1010,1590,258303
111,-31,-86,1008,1597,258316
56,-47,-33,1020,1658,258366
104,-50,63,935,1600,258324
147,-57,108,1040,1589,258268
133,-55,155,1000,1608,258312
133,-71,136,986,1606,258331
118,-70,102,980,1621,258252
121,-68,113,1041,1590,258343
138,-90,83,1046,1605,258322
118,-103,106,1045,1591,258297
158,-67,201,1051,1633,258202
187,-36,154,1030,1632,258361
153,4,183,1003,1708,258317
137,25,149,1009,1661,258315
96,44,95,1067,1666,258447
98,16,74,1040,1627,258387
94,-21,71,1074,1601,258287
73,-61,69,943,1641,258376
126,-69,190,1036,1663,258309
131,-76,194,1054,1591,258316
123,-24,180,980,1540,258406
104,20,182,965,1606,258226
57,47,145,952,1615,258457
78,76,103,950,1597,258350
93,63,64,993,1626,258167
24,-5,118,1023,1606,258277
68,-83,180,1006,1589,258333
103,-138,244,1045,1567,258315
68,-105,227,1079,1581,258322
37,3,194,1058,1593,258426
-16,93,116,1017,1609,258296
-27,107,84,994,1587,258258
-74,72,117,967,1605,258437
-126,6,93,964,1566,258348
-94,-99,166,1020,1545,258334
-88,-162,215,1059,1635,258252
-101,-132,163,1060,1668,258259
-131,-79,125,1105,1658,258330
-148,-84,79,1027,1566,258306
-161,-67,19,980,1553,258313
-203,8,-18,1098,1583,258301
-243,3,23,1055,1608,258309
-225,-19,116,1002,1602,258258
-236,0,184,1083,1625,258333
-239,-2,137,1052,1669,258410
-246,-45,148,996,1585,258298
-257,-82,79,970,1577,258310
-248,-48,-12,965,1549,258416
-292,-9,-7,1001,1615,258330
-290,-8,22,996,1662,258294
-246,33,143,976,1649,258361
-228,53,166,964,1621,258355
-273,44,219,983,1632,258412
-279,-29,198,1005,1661,258337
-330,-41,154,999,1579,258337
-324,38,98,1047,1544,258281
-307,46,38,1016,1574,258214
-304,-2,84,988,1636,258298
-278,-30,162,1029,1579,258308
-251,-16,176,1042,1611,258421
-283,19,205,1039,1631,258251
-253,31,292,987,1610,258204
-242,33,217,988,1644,258313
-230,53,254,1091,1676,258309
-207,16,224,1020,1646,258333
-219,-34,232,1031,1692,258305
-182,-44,309,1007,1669,258294
-149,-62,271,938,1644,258332
-147,-65,281,1049,1605,258311
-162,-79,250,976,1540,258252
-189,-57,128,944,1597,258360
-181,-15,66,945,1612,258409
-192,3,51,1003,1674,258301
-191,-46,80,1158,1629,258216
-144,-67,190,1099,1619,258294
-130,-59,207,995,1581,258433
-147,-21,175,1043,1623,258391
-122,19,191,989,1640,258288
-150,4,82,1027,1624,258416
-134,27,29,1005,1593,258270
-145,16,14,1012,1580,258278
-120,-15,51,975,1649,258320
-54,-30,87,999,1636,258226
-44,-38,125,1082,1565,258476
-32,-11,133,1033,1618,258385
-33,-12,89,1020,1637,258214
-60,-24,20,982,1684,258352
-30,-7,6,1003,1656,258346
-27,-13,21,1021,1635,258337
-14,-41,86,976,1627,258309
50,-89,232,957,1568,258393
76,-81,290,1037,1499,258330
107,-18,307,996,1586,258331
115,-2,296,1002,1589,258310
110,-21,176,1010,1560,258217
91,-3,127,1022,1597,258218
71,33,116,1026,1635,258224
86,29,145,1053,1547,258305
111,1,233,1046,1623,258338
108,1,258,980,1578,258383
88,33,238,946,1686,258315
99,30,186,994,1691,258382
62,52,101,974,1632,258307
74,83,24,1010,1661,258292
34,130,13,1008,1577,258310
33,94,17,940,1607,258361
100,61,121,1017,1618,258340
108,73,185,1086,1624,258456
88,132,151,1039,1579,258346
114,132,101,980,1618,258394
90,109,27,1046,1665,258282
68,159,-72,1039,1626,258338
99,187,-133,1012,1648,258343
96,147,-75,1039,1675,258346
135,131,-45,1045,1612,258303
138,158,-16,1002,1620,258306
120,170,8,984,1622,258192
109,106,29,1013,1644,258346
99,52,-24,1063,1593,258188
109,81,-41,1068,1576,258265
134,121,-20,1073,1597,258296
107,85,40,1044,1572,258363
169,61,135,1045,1574,258309
190,74,174,1082,1548,258354
183,112,191,1102,1670,258374
176,73,176,1049,1593,258236
145,26,108,953,1667,258185
143,28,90,1016,1608,258225
125,56,172,993,1628,258306
119,0,169,1003,1653,258422
187,-31,268,1020,1628,258327
167,9,313,965,1634,258397
144,24,260,991,1592,258245
182,-16,236,998,1613,258229
154,-7,206,1018,1665,258219
99,49,113,1021,1652,258243
114,27,106,960,1663,258240
107,-42,166,949,1576,258312
149,-62,190,1012,1599,258408
159,-29,223,1006,1594,258364
120,-5,225,1008,1665,258285
109,-13,115,1001,1606,258268
55,-19,53,1063,1564,258332
28,-11,-25,1106,1611,258295
10,17,-34,1021,1572,258298
-22,9,27,1047,1600,258333
-7,11,67,1023,1533,258269
18,-11,153,1016,1569,258333
-24,-12,163,1024,1662,258364
-26,-8,54,1041,1637,258317
-61,-1,-35,1001,1614,258214
-84,5,-60,1049,1588,258368
-62,2,-65,1007,1607,258281
-63,4,-8,1062,1605,258270
-43,15,53,1048,1597,258234
-28,47,114,991,1670,258312
-19,66,137,999,1679,258314
-37,40,101,1001,1704,258296
-56,33,49,1030,1607,258355
-70,57,39,1077,1593,258325
-79,43,-8,1057,1627,258209
-88,17,36,998,1625,258212
-64,-5,160,1108,1579,258413
-44,1,199,1031,1560,258376
-51,49,227,1022,1626,258269
-28,37,233,1020,1599,258189
-87,22,133,1023,1611,258135
-133,38,103,1033,1606,258313
-128,33,98,996,1581,258374
-138,12,97,989,1651,258324
-119,23,161,1019,1621,258269
-93,14,201,1050,1651,258359
-104,-9,241,1044,1680,258331
-107,-29,221,1051,1579,258391
-114,-12,154,1018,1614,258304
-148,14,161,940,1572,258345
-149,-4,146,1007,1617,258334
-120,-29,164,1066,1571,258309
-97,-31,216,1103,1595,258281
-56,-26,224,1059,1631,258333
-61,-16,208,1030,1595,258364
-21,-52,189,1073,1667,258397
-55,-85,114,1069,1600,258380
-67,-54,72,1069,1587,258440
-49,-34,42,1003,1610,258368
-18,-58,68,1019,1677,258301
21,-61,134,970,1629,258256
52,-35,147,977,1572,258222
50,-25,171,1020,1576,258210
39,-49,114,1014,1654,258420
28,-54,81,1033,1669,258403
-4,-52,77,1054,1676,258351
36,-75,61,991,1624,258365
33,-102,124,970,1624,258298
66,-69,210,1011,1656,258373
109,-42,206,1029,1624,258397
118,-21,254,1048,1590,258323
135,-12,218,1032,1633,258421
137,-31,93,1006,1641,258307
93,-21,89,985,1634,258329
116,-32,40,995,1667,258475
94,-38,53,1013,1589,258381
132,-3,141,1040,1572,258463
155,13,137,1069,1690,258386
167,52,135,1008,1644,258354
154,72,145,994,1548,258385
129,75,15,1061,1590,258330
69,112,20,1049,1594,258198
60,108,-15,1013,1610,258372
38,63,0,1059,1634,258379
83,47,108,1060,1586,258343
108,68,149,1057,1593,258395
91,39,144,1016,1651,258396
60,-5,152,1078,1572,258290
38,-22,72,1042,1590,258284
11,16,36,1127,1554,258277
-9,32,23,1089,1521,258356
-12,16,-18,1028,1641,258358
-23,45,124,1000,1639,258318
9,63,161,995,1652,258445
-2,69,148,1104,1570,258417
7,44,154,1058,1603,258397
-30,28,135,1033,1596,258351
-56,22,65,1108,1682,258375
-40,-12,66,1042,1628,258303
-28,-36,79,1025,1600,258347
7,-29,117,1032,1524,258267
63,-7,180,971,1628,258218
27,-16,191,1061,1607,258209
24,-17,202,1056,1643,258236
-8,-35,131,1064,1668,258397
-22,-40,118,1072,1573,258367
-47,-60,98,997,1578,258271
-64,-89,83,1008,1604,258274
-30,-92,166,968,1597,258362
-39,-104,176,1004,1687,258402
5,-82,160,1022,1600,258463
-36,-66,198,1014,1538,258447
-96,-97,111,1084,1593,258396
-85,-67,177,1002,1612,258267
-121,-78,134,1012,1615,258313
-107,-105,135,1048,1669,258284
-125,-95,244,1037,1550,258393
-64,-96,185,1064,1588,258353
-38,-107,174,1056,1615,258322
-47,-142,148,979,1654,258289
-74,-170,44,1069,1583,258356
-130,-147,83,985,1587,258231
-133,-102,54,934,1562,258286
-117,-68,52,996,1528,258230
-127,-64,191,1080,1614,258254
-94,-100,161,996,1552,258321
-57,-36,208,1062,1529,258268
-88,9,139,989,1630,258199
-120,-22,95,957,1593,258359
-148,-8,160,1093,1547,258369
-88,1,75,1041,1562,258324
-173,34,35,1056,1631,258264
-148,35,201,1091,1628,258389
-83,19,178,1095,1603,258373
-153,74,200,1039,1595,258429
-185,83,222,977,1618,258374
-144,57,143,1021,1611,258284
-211,102,118,1016,1549,258356
-240,117,18,1093,1611,258419
-221,7,37,1028,1667,258243
-193,-82,161,1040,1549,258254
-148,2,210,1023,1558,258333
-193,124,186,1097,1637,258356
-203,146,165,1010,1658,258347
-237,123,189,1047,1595,258293
-239,129,129,1032,1576,258336
-231,97,77,1069,1591,258418
-224,6,97,1005,1548,258289
-213,-1,188,1028,1595,258359
-176,24,155,1089,1581,258379
-144,-11,187,1038,1662,258282
-183,-88,226,1082,1641,258352
-181,-58,200,1043,1617,258348
-234,20,127,996,1669,258342
-238,5,108,1057,1617,258325
-215,-20,208,1003,1615,258376
-238,50,204,1054,1617,258428
-136,31,220,1091,1626,258339
-125,-39,265,979,1544,258242
-114,-107,211,1026,1621,258215
-104,-72,150,990,1651,258287
-147,-87,117,960,1676,258372
-142,-112,23,1009,1647,258320
-140,-31,65,1002,1624,258329
-108,56,80,971,1595,258379
-56,-9,48,1037,1678,258402
-29,-67,137,1045,1555,258283
-15,-24,65,1034,1575,258300
-21,-12,-11,1028,1634,258256
-28,-59,39,936,1563,258392
-19,-104,35,960,1657,258314
7,-55,24,1021,1633,258259
60,-24,120,1045,1641,258276
80,-74,130,1018,1676,258307
72,-29,179,1074,1602,258414
85,24,174,1039,1627,258359
59,15,160,1051,1674,258308
56,-15,172,1033,1619,258312
37,-14,101,1030,1601,258293
44,-4,156,1020,1656,258237
78,-9,216,1083,1589,258395
104,-29,212,1044,1612,258354
82,1,218,1028,1597,258365
107,36,167,1021,1584,258338
58,73,114,953,1579,258380
53,85,116,964,1660,258305
49,46,34,1027,1625,258416
73,29,74,1018,1608,258291
105,62,173,1035,1546,258267
175,56,141,1072,1565,258271
124,63,206,1009,1678,258335
155,70,168,1054,1644,258340
112,65,104,1048,1503,258371
77,71,102,1034,1567,258212
77,74,59,1090,1632,258362
30,85,50,1051,1600,258366
55,97,130,970,1577,258316
95,61,118,1008,1535,258394
85,55,131,1077,1620,258367
93,22,132,1011,1614,258306
60,-29,31,980,1670,258307
22,-27,31,1015,1662,258320
14,-14,-24,1012,1632,258282
-15,8,-47,1009,1617,258326
20,25,5,1003,1657,258344
52,17,53,1070,1677,258298
29,24,61,1010,1655,258359
12,66,88,1074,1638,258323
8,16,42,1049,1649,258339
6,-67,72,1040,1579,258239
-9,-39,117,977,1584,258234
-36,2,67,1039,1592,258341
34,-97,134,1056,1608,258277
63,-145,205,1046,1547,258308
55,-65,180,959,1559,258375
-4,8,142,990,1655,258321
34,-123,185,1026,1673,258290
-10,-135,176,1036,1592,258348
16,-36,143,1071,1580,258335
-10,-1,140,1033,1679,258385
34,-93,215,1037,1633,258321
85,-112,200,1037,1600,258291
55,-10,113,1009,1681,258266
55,-39,26,1021,1650,258400
82,-122,94,1017,1625,258455
65,-101,-3,1035,1574,258414
47,28,-36,978,1481,258272
39,10,25,1057,1639,258277
92,-71,77,1070,1671,258261
135,-14,93,1054,1615,258314
103,79,81,1053,1688,258395
116,43,86,1018,1658,258308
119,-32,89,1004,1624,258232
126,-9,77,1009,1613,258353
111,34,37,1067,1635,258307
73,75,183,1122,1667,258347
139,62,161,1114,1607,258245
154,115,203,1089,1636,258269
115,126,239,1036,1660,258228
129,101,232,971,1600,258351
129,56,172,1039,1603,258340
96,79,152,1019,1600,258298
78,107,120,975,1625,258386
68,109,211,1043,1594,258350
116,76,211,1005,1608,258295
113,128,210,1095,1535,258290
45,176,207,1088,1603,258236
58,117,151,1073,1598,258328
54,23,158,951,1582,258336
13,56,110,969,1574,258313
-8,80,51,939,1628,258282
0,18,102,999,1646,258308
36,-36,95,1072,1635,258304
48,16,6,1066,1574,258218
25,57,43,1030,1632,258334
17,4,24,1047,1558,258260
8,5,-10,1034,1623,258196
-27,29,-12,1026,1631,258317
-31,21,-17,1042,1598,258322
-34,-4,24,1010,1595,258371
15,0,53,1055,1687,258256
63,17,36,1055,1607,258308
36,44,45,1043,1567,258418
67,20,50,1016,1615,258395
17,-42,13,1070,1659,258451
6,-79,32,1047,1600,258293
2,-34,83,1061,1564,258250
-4,-18,101,1072,1631,258391
28,-31,157,1068,1603,258293
38,-29,210,1096,1560,258225
16,-13,172,1044,1630,258323
25,-12,179,1002,1651,258330
40,-64,174,987,1616,258346
14,-108,139,1003,1571,258310
15,-89,206,1029,1641,258312
5,-78,211,1063,1653,258377
42,-73,231,948,1690,258313
44,-60,262,1024,1635,258351
55,-35,163,1031,1576,258338
46,-14,132,1061,1578,258457
47,-42,49,1004,1555,258360
30,-29,-42,971,1610,258298
56,-3,-5,987,1647,258293
42,-5,20,1003,1651,258275
73,-10,130,1077,1581,258351
87,-10,266,1011,1618,258364
73,11,191,995,1620,258252
67,74,133,983,1649,258268
93,80,63,1041,1633,258299
66,55,32,961,1596,258322
70,29,-6,952,1631,258436
60,50,-96,980,1615,258429
100,129,-77,974,1668,258294
92,148,-61,1020,1679,258347
76,160,1,1085,1625,258287
69,121,-10,1027,1611,258271
38,86,-113,1082,1573,258287
-11,103,-39,1052,1599,258340
-13,141,52,1038,1628,258412
-7,152,177,999,1645,258399
-1,190,300,1021,1657,258374
7,185,245,1017,1614,258268
-25,178,306,1044,1604,258317
-24,87,273,1023,1620,258348
-36,19,219,1044,1583,258335
-72,28,277,1008,1566,258259
-70,28,250,1050,1619,258405
-78,29,288,1073,1671,258326
-77,26,435,962,1640,258364
-66,36,368,1036,1560,258298
-94,79,411,1104,1547,258305
-129,69,275,1031,1657,258294
-123,4,128,1012,1651,258372
-172,-40,117,1048,1637,258304
-179,-31,104,1058,1604,258298
-177,-38,151,984,1574,258277
-155,-63,264,1077,1641,258273
-144,-64,299,1074,1595,258357
-166,-29,276,985,1652,258264
-155,-61,188,991,1661,258256
-197,-118,95,1122,1638,258306
-217,-100,79,1066,1611,258351
-201,-109,37,1085,1681,258260
-207,-172,57,1042,1651,258226
-197,-181,91,1057,1560,258316
-177,-135,62,1019,1665,258348
-203,-165,64,1042,1594,258341
-205,-240,17,994,1628,258370
-212,-217,-5,983,1624,258336
-261,-138,11,1033,1629,258313
-258,-139,23,1066,1680,258299
-235,-165,159,1038,1604,258309
-201,-140,217,1007,1524,258321
-181,-128,202,1067,1516,258299
-182,-130,166,1016,1598,258252
-192,-159,88,947,1643,258342
-230,-162,-5,1052,1609,258264
-238,-125,22,991,1634,258252
-220,-76,83,972,1567,258356
-248,-38,125,988,1612,258387
-227,9,229,1009,1655,258419
-197,5,220,1038,1676,258374
-214,10,223,1020,1645,258382
-208,11,127,948,1611,258335
-227,0,103,927,1612,258363
-234,31,124,1011,1645,258238
-239,45,189,1095,1639,258230
-218,21,220,1024,1624,258390
-208,25,345,1088,1644,258390
-190,57,304,1060,1628,258369
-194,66,288,1036,1683,258417
-169,21,262,998,1628,258383
-202,-12,144,1028,1641,258220
-187,16,122,995,1656,258219
-172,-9,137,1028,1575,258343
-147,-50,149,1054,1625,258384
-130,-11,208,974,1630,258301
-118,4,189,1022,1631,258243
-147,-17,112,1070,1616,258266
-136,-19,87,1031,1527,258303
-161,-13,-14,1079,1554,258364
-162,-2,11,989,1656,258304
-168,-25,90,1044,1658,258330
-152,-42,99,1021,1568,258369
-146,30,135,972,1651,258340
-84,24,156,943,1646,258350
-93,-28,65,1055,1579,258293
-83,-36,72,1096,1565,258225
-122,-48,-13,1049,1639,258312
-102,-52,9,1010,1635,258353
-88,-35,96,1025,1643,258356
-70,-16,58,1113,1603,258392
-32,9,135,1101,1577,258328
-6,-7,157,1114,1589,258268
-29,-17,110,1025,1645,258266
23,-35,70,1056,1554,258316
-3,-78,70,1042,1609,258250
4,-92,116,999,1602,258280
30,-86,145,1062,1664,258266
26,-86,152,1057,1626,258426
63,-56,228,1008,1601,258388
112,-44,190,995,1616,258433
80,-59,167,960,1565,258365
96,-53,128,1044,1623,258230
72,-6,64,1014,1566,258285
94,47,105,1027,1651,258320
125,19,102,1002,1670,258361
144,-18,132,1002,1577,258325
182,24,237,997,1585,258334
241,50,188,1016,1568,258273
201,53,142,1052,1627,258266
227,58,122,1028,1616,258265
218,57,32,1069,1673,258421
187,96,41,1031,1564,258377
226,91,71,1016,1587,258285
206,92,105,1074,1590,258322
207,106,188,1024,1605,258254
230,90,217,1017,1597,258287
189,30,155,953,1610,258298
185,24,110,966,1594,258341
181,39,21,972,1626,258279
160,44,4,1068,1648,258314
172,50,59,988,1555,258300
148,49,66,1029,1647,258318
170,50,113,1016,1651,258231
193,49,184,1055,1635,258358
152,16,148,999,1624,258428
175,-3,152,991,1664,258346
141,-35,123,1097,1645,258268
126,-29,100,944,1619,258270
139,-21,102,984,1577,258286
107,-20,85,1016,1570,258303
100,24,137,991,1603,258253
141,44,152,1041,1718,258281
103,36,96,1037,1676,258288
96,4,108,1008,1611,258332
67,-7,47,1009,1635,258217
88,-28,9,1041,1623,258220
72,-49,43,1076,1659,258250
66,-57,22,1125,1604,258399
81,-27,61,1096,1543,258405
102,-5,97,1051,1645,258334
77,-16,40,1020,1654,258302
76,-29,51,1071,1652,258350
23,-18,13,1014,1638,258249
16,-20,-7,1064,1579,258238
34,-46,54,1026,1628,258270
2,-67,43,1061,1676,258302
10,6,114,1043,1634,258296
33,39,124,1023,1631,258311
30,-13,97,1048,1586,258269
18,-24,136,1003,1580,258224
-21,16,77,1094,1583,258358
-5,32,52,993,1607,258286
6,24,107,1030,1586,258256
-25,43,60,1067,1679,258241
0,103,180,1049,1591,258254
32,66,199,998,1616,258180
18,39,161,1030,1677,258337
29,73,182,1021,1605,258403
-4,60,84,1090,1594,258421
7,54,149,1049,1620,258457
21,77,156,973,1648,258377
-42,96,130,1021,1584,258266
6,86,290,1035,1552,258286
54,56,287,1043,1575,258395
28,84,231,1060,1656,258327
27,94,248,1013,1675,258407
12,55,139,965,1611,258354
-16,83,130,1007,1582,258340
31,89,89,979,1616,258393
29,42,63,1036,1646,258387
53,75,219,1050,1637,258373
95,97,217,1041,1652,258295
68,57,128,1068,1676,258234
51,23,140,1037,1656,258190
33,24,17,1061,1614,258267
7,-10,-33,1091,1547,258285
64,-63,45,1076,1567,258246
41,-63,-12,1069,1587,258331
80,25,47,1024,1626,258278
88,40,67,1047,1694,258384
107,-28,38,1052,1551,258307
53,-3,37,1048,1613,258235
45,28,-5,1048,1644,258285
-8,-8,-46,1007,1631,258250
10,-115,87,1024,1552,258331
-22,-80,68,1020,1540,258288
23,-2,125,1046,1588,258320
36,4,118,1034,1676,258420
1,-15,158,1053,1587,258379
27,-23,151,1031,1588,258301
21,21,155,1069,1605,258264
-9,-16,27,1081,1615,258268
-10,66,167,1083,1612,258223
-46,15,50,1050,1666,258312
2,36,213,1002,1589,258347
0,38,260,1135,1622,258544
-9,62,129,1067,1594,258316
25,70,153,1063,1581,258263
-12,6,121,1078,1612,258303
-59,11,51,932,1607,258306
-23,19,46,1011,1653,258328
-54,78,84,1037,1644,258383
-10,88,70,999,1680,258256
-33,72,173,992,1623,258332
-16,41,128,1055,1588,258379
-24,88,133,1052,1561,258431
-49,73,42,1102,1561,258309
-81,3,67,989,1605,258387
-16,1,148,1006,1553,258380
-48,32,148,1035,1584,258380
4,15,187,1065,1617,258349
34,9,276,1075,1560,258302
-16,74,197,1059,1590,258327
19,61,95,1083,1545,258307
-43,-41,103,1021,1583,258282
-40,-47,89,1011,1618,258252
-1,42,-14,1036,1656,258320
-40,36,67,1051,1716,258290
-17,-23,169,1073,1611,258321
16,-20,167,1044,1549,258341
-52,16,181,1047,1584,258322
-49,-24,154,1025,1632,258314
-77,-73,111,1038,1581,258372
-85,-35,133,983,1555,258393
-88,-59,88,1044,1641,258341
-117,-91,142,1026,1585,258267
-92,-77,243,1029,1594,258308
-70,-56,177,1001,1591,258300
-88,-55,168,1026,1643,258424
-62,-57,186,1038,1640,258373
-70,-77,83,1106,1578,258350
-84,-57,36,1057,1606,258259
-57,-73,43,1080,1620,258329
-54,-69,61,1077,1537,258327
-32,-55,101,966,1625,258233
7,-77,83,986,1583,258341
1,-85,87,1031,1558,258323
21,-73,77,1070,1641,258263
5,-85,58,1082,1620,258335
-44,-106,46,1036,1629,258332
-4,-101,145,1076,1629,258349
50,-10,192,1037,1645,258328
115,53,272,1090,1625,258268
127,103,330,1066,1602,258323
93,160,312,1076,1636,258316
74,211,283,1074,1619,258361
-5,155,214,1073,1643,258369
-35,111,174,1032,1581,258263
-40,139,123,1000,1636,258379
-50,162,165,1039,1655,258329
-48,136,157,1068,1623,258287
-69,118,144,1024,1599,258299
-124,112,134,1104,1613,258282
-146,102,111,1079,1570,258280
-215,85,88,1055,1594,258276
-216,28,73,1032,1546,258267
-262,-10,150,1013,1603,258337
-267,-24,213,1035,1564,258328
-250,-34,267,987,1568,258230
-226,-58,245,964,1666,258266
-290,-45,244,1002,1700,258293
-254,-13,148,1013,1679,258318
-256,-35,76,1021,1564,258295
-295,-40,46,1029,1589,258334
-309,-77,23,975,1543,258145
-343,-100,48,973,1598,258233
-315,-151,76,978,1616,258372
-306,-231,8,1035,1593,258372
-314,-218,75,979,1594,258223
-270,-216,5,974,1589,258262
-279,-215,-9,997,1605,258308
-272,-238,56,1079,1606,258345
-223,-228,101,978,1597,258300
-190,-170,159,966,1612,258274
-128,-162,256,1092,1618,258276
-87,-171,260,1086,1582,258330
-103,-133,277,1058,1583,258240
-51,-155,221,1030,1578,258208
-62,-246,143,970,1538,258342
-117,-247,137,986,1585,258426
-66,-177,48,970,1637,258364
-71,-164,83,975,1657,258266
-1,-177,167,987,1641,258434
4,-136,129,1038,1604,258374
2,-66,153,1034,1597,258266
22,-55,207,1031,1657,258305
-15,-43,181,1058,1631,258362
-42,29,225,1035,1627,258289
-64,66,238,1038,1621,258397
-28,96,321,1076,1593,258375
14,171,341,1050,1631,258375
-7,221,257,1063,1628,258417
10,222,245,1063,1613,258385
-13,194,183,1115,1581,258429
-44,161,98,1068,1712,258354
-69,162,78,991,1686,258344
-61,153,106,1041,1648,258269
-79,138,121,1032,1561,258296
-78,131,167,963,1522,258280
-100,171,165,968,1592,258261
-111,211,157,986,1589,258320
-104,198,124,1042,1583,258362
-184,168,118,1035,1647,258362
-193,157,121,1034,1579,258343
-151,155,165,1019,1530,258364
-164,152,176,1019,1595,258377
-121,162,162,977,1651,258266
-174,126,133,1039,1535,258406
-196,94,89,982,1639,258351
-193,45,-16,963,1619,258324
-242,7,-101,1002,1684,258319
-238,-1,-103,973,1606,258243
-248,-68,-116,1068,1600,258265
-233,-114,-38,1055,1559,258177
-174,-125,72,1043,1635,258287
-182,-107,44,1024,1549,258388
-185,-106,80,948,1532,258363
-159,-167,109,952,1649,258426
-154,-189,61,1068,1627,258387
-109,-168,85,985,1633,258362
-124,-153,103,963,1660,258328
-60,-196,108,1082,1622,258355
53,-222,153,1060,1582,258322
116,-250,115,1080,1600,258390
159,-253,103,1086,1644,258415
245,-250,77,1086,1633,258234
254,-253,-11,1091,1641,258425
259,-240,13,1089,1647,258247
316,-212,31,976,1624,258225
394,-178,33,1043,1574,258304
449,-150,98,1062,1530,258277
478,-154,89,1027,1562,258303
517,-101,110,1070,1627,258298
518,-73,105,1028,1608,258371
487,-85,56,1064,1624,258311
483,-45,131,1071,1622,258324
531,25,186,1054,1600,258346
522,47,154,1094,1555,258368
537,28,252,1038,1562,258241
541,37,249,1066,1648,258264
545,80,238,1033,1610,258344
508,46,204,1073,1609,258362
464,0,149,1084,1631,258375
428,31,197,1016,1617,258310
413,59,187,1066,1643,258389
365,74,185,1092,1605,258386
364,97,263,1114,1564,258371
317,143,243,1068,1578,258394
225,154,212,955,1620,258284
190,137,234,969,1589,258359
123,125,165,1050,1624,258298
56,171,154,954,1646,258216
25,156,159,945,1636,258337
-5,141,151,1043,1635,258332
-9,162,158,1055,1639,258379
-27,191,73,984,1626,258383
-52,204,29,1044,1648,258320
-51,198,-27,1034,1645,258380
-152,154,-94,983,1663,258441
-218,142,-95,1118,1680,258239
-237,118,-70,1051,1673,258361
-235,66,-64,983,1598,258320
-276,49,-11,1028,1600,258315
-288,42,-50,1047,1597,258329
-269,31,-22,987,1563,258262
-291,-14,-45,1045,1584,258345
-343,-24,-105,1043,1573,258285
-353,8,-56,1043,1597,258308
-351,34,-53,1061,1575,258341
-341,26,-64,1058,1578,258383
-317,34,30,1020,1660,258365
-265,-7,-32,1058,1688,258346
-239,-17,0,1074,1649,258298
-188,-7,-19,1047,1637,258264
-187,-20,-67,1028,1650,258310
-159,14,-2,995,1618,258229
-94,50,-4,988,1606,258367
-58,93,23,1027,1672,258280
-12,121,142,1112,1614,258273
59,128,111,1058,1622,258328
95,131,151,1033,1645,258211
130,123,179,1078,1624,258304
149,54,105,1011,1660,258323
132,55,226,1048,1616,258331
225,48,218,1033,1657,258281
274,20,228,1009,1588,258365
346,-8,307,1026,1529,258348
396,-7,292,1094,1611,258331
398,14,253,1060,1632,258255
425,15,244,967,1639,258277
382,-7,192,1010,1647,258325
377,-14,248,1074,1591,258316
406,-20,265,1070,1678,258316
376,-30,292,1058,1630,258265
416,25,378,983,1646,258411
454,47,366,1027,1590,258394
436,-12,354,1001,1626,258324
421,-21,331,1084,1676,258297
340,-6,276,1030,1623,258286
269,6,279,956,1620,258353
258,-24,274,1039,1610,258512
185,-19,264,1084,1668,258341
147,-9,255,1032,1637,258287
126,-39,200,1034,1587,258304
94,-46,131,1052,1603,258212
44,-10,92,1075,1637,258264
-93,-41,57,1038,1657,258222
-112,-48,148,982,1662,258323
-140,10,152,1021,1588,258357
-230,36,111,1069,1606,258337
-240,20,173,1035,1580,258283
-223,-14,176,1049,1532,258244
-308,9,79,1011,1596,258285
-346,16,32,999,1636,258280
-450,-7,-66,1074,1604,258366
-473,23,-53,1016,1572,258273
-505,6,-124,1027,1635,258337
-540,8,-143,967,1608,258396
-508,22,-33,1069,1598,258261
-498,20,-99,1129,1604,258241
-526,6,-51,1041,1522,258259
-531,8,-24,975,1593,258344
-550,-6,-77,993,1558,258359
-573,20,0,1016,1607,258372
-488,31,28,1046,1603,258219
-454,54,13,1069,1639,258259
-410,117,131,1026,1658,258337
-360,100,65,1075,1576,258376
-349,101,53,993,1666,258277
-298,137,84,988,1607,258271
-303,112,-28,1047,1682,258339
-273,77,65,1001,1658,258313
-215,32,80,960,1574,258350
-193,76,84,983,1541,258349
-132,124,157,1082,1628,258350
-62,81,117,1054,1665,258403
-2,54,140,1061,1606,258344
62,30,111,1088,1669,258334
80,23,85,1029,1674,258305
128,18,159,1083,1639,258327
181,9,169,1084,1592,258382
230,22,197,1055,1610,258406
298,16,300,1070,1580,258288
362,-42,298,1058,1625,258378
368,-69,269,1082,1588,258331
439,-99,196,1000,1581,258387
372,-124,172,1042,1596,258386
387,-157,198,1068,1556,258279
381,-169,174,1064,1600,258324
368,-114,250,1086,1537,258352
405,-61,306,1128,1624,258238
424,-96,284,976,1670,258200
365,-76,347,1022,1658,258211
346,-67,311,1050,1554,258312
271,-101,260,1056,1607,258288
224,-142,323,995,1593,258341
212,-121,285,1024,1567,258258
104,-43,299,1023,1596,258286
145,-24,326,1037,1593,258216
144,-45,287,1037,1582,258324
99,9,238,1015,1556,258339
33,50,155,996,1594,258374
-46,6,114,991,1503,258327
-90,-17,181,997,1636,258232
-143,-7,133,1032,1660,258231
-187,28,208,1061,1637,258328
-182,45,251,988,1683,258299
-196,-7,192,1052,1631,258284
-280,-20,195,1056,1558,258347
-317,-9,66,1023,1590,258339
-354,8,50,1022,1607,258240
-471,21,11,993,1597,258305
-449,-80,6,1007,1558,258289
-503,-29,8,977,1566,258326
-469,56,50,1029,1632,258348
-515,43,-97,1024,1619,258295
-521,-9,-22,1010,1540,258293
-469,-29,-97,952,1590,258259
-510,38,-154,1060,1570,258319
-545,9,-157,1038,1627,258334
-513,15,-67,1011,1556,258351
-515,73,-85,1066,1566,258305
-449,148,12,1015,1608,258279
-418,73,16,1049,1631,258272
-393,2,-22,999,1582,258255
-367,-13,66,1077,1634,258334
-385,-79,20,1025,1614,258355
-350,-96,63,993,1617,258373
-330,-80,79,1006,1604,258310
-353,-51,52,948,1598,258321
-232,-93,143,1016,1579,258281
-175,-116,218,955,1581,258267
-152,-106,48,991,1589,258269
-124,-129,115,1063,1651,258234
-113,-249,72,1012,1627,258282
-66,-263,130,983,1623,258322
-43,-202,221,953,1644,258228
-12,-200,246,970,1615,258235
36,-207,386,1025,1600,258265
87,-196,410,1039,1709,258382
110,-136,326,1054,1652,258355
148,-109,319,1086,1598,258395
115,-126,332,1087,1615,258321
112,-151,304,1074,1591,258331
103,-135,290,1062,1627,258391
130,-93,325,1012,1589,258375
176,-96,356,974,1571,258241
176,-93,310,964,1556,258185
158,-34,279,997,1629,258304
198,-36,203,1071,1613,258327
170,-96,170,1032,1587,258203
156,-72,212,988,1599,258277
143,-19,194,1002,1592,258284
136,21,260,964,1619,258355
181,33,269,945,1610,258367
190,34,175,990,1664,258323
153,25,175,1025,1648,258242
169,-5,110,975,1591,258406
128,-15,23,1001,1604,258366
93,-20,24,1001,1587,258380
62,-38,-2,1009,1632,258363
36,24,41,1042,1674,258212
56,109,78,1053,1518,258239
54,118,13,999,1583,258318
9,102,36,1013,1604,258361
21,88,28,995,1609,258343
-30,69,-64,1013,1653,258355
-47,52,-29,1072,1589,258253
-53,44,8,1081,1618,258235
-61,67,26,1058,1644,258334
-37,93,93,1049,1611,258318
2,91,96,1063,1613,258382
-37,108,52,1094,1585,258304
-9,119,75,1055,1606,258369
-30,31,19,1040,1651,258395
-24,-5,5,1016,1647,258308
-6,13,29,1050,1651,258323
-2,43,83,1067,1680,258365
25,32,53,953,1636,258299
56,21,49,918,1564,258239
41,12,32,1023,1603,258300
70,-7,30,1044,1639,258254
88,-26,40,1095,1606,258287
77,-33,35,1019,1589,258293
112,-21,39,1018,1584,258291
114,17,115,1050,1584,258296
154,21,150,1060,1616,258294
192,21,109,1074,1671,258389
220,44,136,1052,1575,258398
233,31,48,997,1627,258357
244,-28,-3,1037,1643,258292
218,-37,39,1072,1603,258345
257,-14,21,1106,1577,258386
263,71,21,998,1562,258210
307,90,59,980,1617,258281
288,64,51,1035,1603,258344
309,72,55,1002,1527,258381
318,63,67,1070,1599,258426
266,-5,46,1038,1602,258345
242,-38,61,1044,1594,258265
266,-24,91,960,1643,258396
229,-26,113,1051,1617,258264
248,-13,170,1054,1545,258269
270,15,161,1057,1590,258343
215,72,141,1078,1646,258360
203,47,137,962,1583,258407
188,-34,144,1014,1551,258350
163,-34,139,1052,1617,258204
129,15,185,1026,1630,258329
136,28,205,1000,1627,258364
124,24,251,1063,1600,258372
100,15,252,1054,1589,258349
52,30,212,1072,1542,258237
56,54,165,1063,1552,258267
14,69,137,1078,1632,258248
-19,60,105,1000,1552,258285
-34,35,123,1021,1601,258388
-21,30,192,1048,1644,258296
-16,25,174,1023,1629,258355
-18,29,122,1062,1619,258384
-44,28,160,1035,1672,258244
-37,-10,100,1033,1649,258203
-45,-41,16,1001,1638,258293
-84,-25,36,984,1552,258367
-70,0,-15,989,1641,258300
-72,49,35,1014,1598,258334
-36,95,52,1063,1571,258294
-55,84,20,1122,1676,258369
-63,66,65,982,1643,258374
-59,49,39,1012,1645,258311
-84,19,-13,1050,1616,258321
-98,4,55,1066,1616,258401
-68,18,59,1038,1628,258326
-72,81,101,1042,1624,258267
-45,133,161,1034,1623,258199
-68,133,147,988,1610,258252
-68,168,185,1020,1579,258269
-50,161,145,1057,1608,258260
-45,103,89,1068,1574,258323
-52,87,172,1006,1530,258330
-35,92,154,1051,1537,258389
-15,110,193,1002,1547,258358
18,124,271,1019,1597,258375
12,124,211,1046,1632,258358
40,137,239,999,1634,258372
21,135,238,1008,1609,258241
12,81,179,1076,1598,258334
-5,58,214,1030,1566,258333
14,43,244,1041,1626,258323
29,9,247,1117,1609,258354
44,37,271,1037,1673,258417
56,17,220,1045,1664,258338
13,11,190,1021,1625,258245
22,-11,149,1014,1607,258309
-19,-30,68,1054,1650,258315
-46,-39,76,990,1641,258271
-51,-52,106,988,1643,258308
-60,-61,151,1032,1618,258240
-65,-47,137,1031,1612,258395
-61,-55,132,1009,1623,258372
-86,-58,130,1035,1595,258314
-77,-67,46,1077,1634,258324
-124,-60,28,1092,1644,258300
-131,-83,3,1036,1621,258397
-130,-91,-15,1037,1641,258334
-139,-62,52,1096,1551,258313
-128,-27,68,1049,1553,258325
-149,-19,38,1031,1579,258292
-174,-27,96,969,1664,258269
-159,-55,22,973,1709,258245
-180,-62,3,971,1612,258316
-184,-63,44,1029,1640,258280
-174,-56,38,1049,1585,258395
-196,-35,79,1075,1577,258263
-191,-21,133,1053,1647,258365
-199,-9,112,988,1571,258434
-212,31,131,1040,1569,258341
-216,35,83,1029,1558,258374
-215,24,78,1052,1600,258332
-231,39,94,1079,1619,258285
-192,28,77,1017,1647,258316
-170,23,132,1069,1551,258397
-158,41,190,1023,1566,258351
-157,68,186,1038,1595,258329
-128,90,197,1068,1642,258378
-103,79,164,1019,1614,258335
-119,91,179,1001,1600,258357
-117,119,201,1086,1620,258209
-59,103,232,1016,1647,258322
-24,104,264,1009,1594,258397
8,121,263,1091,1594,258326
24,94,239,1049,1606,258295
22,66,235,1036,1596,258398
54,60,157,1020,1640,258414
-10,70,141,1025,1647,258348
29,26,137,983,1600,258398
59,-8,137,1022,1564,258300
55,34,148,954,1535,258368
66,70,125,998,1646,258354
67,52,151,1147,1576,258391
77,15,134,1043,1605,258243
76,-4,64,1005,1606,258314
24,-47,33,951,1653,258335
25,-59,85,892,1646,258333
46,-105,104,1023,1567,258360
45,-126,156,1019,1632,258330
62,-122,211,1003,1597,258374
34,-102,222,1020,1595,258331
7,-90,182,1033,1610,258270
-13,-97,152,995,1633,258312
-59,-103,119,993,1641,258340
-56,-102,194,1059,1602,258149
-18,-145,179,1040,1624,258282
-46,-159,214,1010,1605,258306
-58,-150,260,1014,1688,258376
-55,-143,250,1015,1583,258312
-114,-105,241,1025,1586,258348
-113,-78,197,1040,1640,258185
-161,-48,143,1102,1627,258286
-197,-37,174,1007,1663,258407
-192,-75,170,1040,1601,258460
-192,-78,161,1026,1585,258462
-211,-45,242,978,1540,258310
-210,-69,167,1034,1576,258293
-241,-92,145,978,1547,258234
-247,-91,70,977,1579,258285
-293,-91,-19,1111,1620,258221
-294,-38,60,1021,1656,258167
-263,-29,8,1030,1698,258221
-272,-2,37,1089,1680,258296
-240,3,146,973,1672,258197
-242,-20,27,1004,1571,258457
-216,-32,133,967,1592,258351
-212,-38,35,991,1601,258325
-238,-20,-36,1057,1591,258352
-222,-15,92,984,1568,258382
-213,-27,-49,1040,1584,258427
-161,23,88,1070,1602,258163
-178,61,92,1033,1612,258186
-178,46,33,1001,1602,258246
-152,28,115,1073,1621,258248
-149,2,83,1064,1610,258203
-170,20,23,1041,1574,258336
-140,37,120,1058,1603,258335
-73,-30,50,1064,1661,258395
-74,-1,197,1080,1572,258386
-23,50,152,1027,1639,258321
14,21,144,1029,1682,258247
-2,4,216,1035,1624,258258
-10,2,87,983,1607,258437
-34,17,119,972,1569,258332
-13,-44,201,1026,1588,258292
52,-101,180,1066,1616,258318
52,-55,243,996,1611,258261
123,-37,251,1034,1602,258292
144,-93,260,1065,1561,258326
111,-130,251,1067,1566,258301
153,-125,139,1078,1600,258317
131,-126,139,1103,1609,258453
105,-143,159,1038,1586,258299
176,-109,121,1058,1614,258337
150,-103,192,1101,1623,258360
145,-102,238,1083,1607,258275
149,-103,195,1093,1606,258239
151,-111,137,992,1555,258250
160,-102,145,980,1521,258327
88,-112,62,952,1634,258269
129,-98,64,1010,1566,258277
141,-107,118,1081,1549,258288
80,-66,96,1127,1572,258318
102,-36,169,1078,1551,258366
120,-106,130,988,1621,258360
76,-118,123,1067,1596,258382
95,-61,61,1047,1616,258281
66,-27,-9,999,1547,258201
67,-69,-10,1043,1565,258298
109,-73,-1,1040,1587,258255
101,-54,-29,1051,1652,258157
120,-37,41,1087,1671,258194
146,-89,39,1117,1598,258328
90,-89,23,1048,1618,258332
91,-21,47,1064,1534,258300
25,-12,-31,964,1618,258387
32,-33,32,995,1671,258297
87,-22,60,1000,1657,258279
97,32,79,1047,1609,258250
122,63,117,971,1627,258293
131,26,111,1060,1580,258377
115,39,122,963,1609,258273
91,81,42,1041,1626,258216
36,63,23,1023,1620,258248
69,28,82,998,1599,258303
69,54,54,1047,1633,258302
98,108,55,1039,1589,258328
152,74,145,1010,1667,258419
145,-10,112,1002,1577,258358
169,24,103,1047,1545,258354
155,50,80,1079,1548,258378
136,18,110,1051,1593,258342
134,19,153,1067,1620,258314
186,65,129,1099,1637,258297
148,116,199,1068,1623,258338
192,74,185,1036,1669,258322
205,45,190,1038,1609,258325
223,64,163,1006,1594,258241
211,71,90,1024,1641,258207
189,50,110,968,1577,258350
205,26,125,1010,1567,258271
189,40,132,1007,1632,258291
195,76,180,999,1623,258279
249,72,223,1014,1617,258266
223,55,167,1012,1631,258274
197,68,183,1004,1568,258328
187,89,130,1002,1647,258415
143,45,56,1051,1613,258286
167,27,108,1007,1622,258370
135,41,39,982,1647,258301
169,69,96,998,1677,258302
169,35,97,1035,1679,258323
157,-12,44,1054,1668,258347
131,-3,23,994,1597,258406
77,37,-37,1041,1629,258397
38,37,-76,1027,1666,258368
1,39,-8,1024,1654,258305
-5,54,-54,982,1664,258356
-7,73,76,1056,1631,258357
11,66,141,1036,1571,258395
23,36,76,1021,1579,258352
1,70,203,972,1610,258359
-60,72,104,1053,1625,258407
-58,58,82,1027,1583,258303
-108,73,154,1061,1591,258238
-112,90,57,1021,1717,258375
-110,114,126,1094,1616,258211
-103,71,181,1046,1587,258332
-99,3,143,1041,1576,258331
-144,-3,165,997,1599,258259
-143,2,130,1051,1609,258342
-158,-12,88,998,1632,258276
-193,15,137,966,1610,258238
-163,43,74,960,1613,258254
-132,101,149,1094,1642,258304
-146,83,194,1039,1692,258300
-121,71,185,1051,1624,258381
-130,87,226,963,1608,258292
-145,78,210,1014,1572,258371
-157,44,185,1053,1583,258360
-131,32,192,1060,1580,258314
-110,69,176,958,1574,258401
-85,108,182,966,1563,258355
-35,101,204,1026,1639,258336
-50,104,169,1081,1713,258428
-57,113,129,973,1573,258359
-100,130,69,963,1594,258365
-84,79,44,1004,1628,258353
-86,60,57,1014,1678,258283
-86,84,73,979,1662,258327
-52,117,130,992,1669,258367
-34,87,124,1029,1622,258390
-24,73,133,1023,1607,258349
-15,71,117,1087,1608,258289
-24,67,55,1077,1648,258279
-39,69,94,1061,1646,258312
-86,80,70,1051,1658,258363
-64,83,70,1042,1648,258461
-77,90,169,1059,1618,258392
-39,56,150,1068,1618,258293
-27,24,137,1033,1570,258424
-30,16,199,1058,1601,258319
-19,-16,138,1056,1575,258358
-70,-37,109,1095,1553,258293
-87,-6,153,1019,1580,258241
-111,20,89,992,1616,258300
-105,51,189,1014,1617,258340
-86,29,204,1080,1627,258367
-98,-10,192,1052,1667,258377
-124,6,222,1042,1617,258262
-113,-3,136,1017,1584,258347
-144,-31,96,1042,1580,258197
-142,-20,113,986,1613,258231
-124,0,85,990,1595,258239
-126,30,153,1009,1623,258389
-87,27,175,1020,1609,258408
-140,5,137,1045,1584,258340
-123,16,186,1026,1580,258313
-108,-14,153,1054,1596,258332
-135,-27,111,1030,1615,258276
-160,-16,113,970,1577,258332
-141,-16,98,989,1543,258360
-95,-7,167,1081,1647,258386
-90,-26,211,1062,1621,258252
-94,-57,172,1073,1636,258280
-80,-41,265,1075,1544,258305
-90,-35,231,1014,1536,258327
-104,-52,176,1056,1585,258293
-138,-51,225,1058,1598,258253
-98,-27,157,1009,1613,258415
-80,10,165,1025,1612,258296
-48,1,175,953,1597,258341
-27,-29,132,956,1584,258308
-23,-6,163,984,1639,258369
-24,4,126,1054,1590,258387
-57,2,104,1097,1601,258284
-51,31,127,1023,1611,258299
-44,53,121,997,1580,258321
-37,83,154,1054,1633,258328
-6,50,153,1021,1644,258290
4,29,125,949,1695,258393
-5,43,138,1029,1691,258426
11,7,87,1026,1630,258387
-9,-34,103,1067,1570,258390
-51,-42,113,1054,1537,258398
-34,-21,87,1115,1584,258242
0,19,153,1124,1637,258376
29,39,159,1017,1609,258399
-36,-3,141,1024,1593,258322
-18,-44,153,983,1561,258367
-31,-78,118,1019,1664,258389
-75,-69,72,1015,1593,258286
-94,-93,101,945,1578,258361
-78,-99,91,1068,1608,258310
-92,-77,156,1045,1603,258398
-46,-91,159,976,1645,258376
-54,-101,144,977,1631,258340
-76,-107,163,1051,1582,258383
-85,-125,118,1047,1610,258331
-123,-156,101,992,1598,258372
-156,-173,104,1025,1659,258335
-163,-150,110,1052,1612,258189
-144,-165,154,1010,1616,258319
-135,-170,162,1022,1608,258246
-129,-184,158,995,1675,258239
-153,-172,140,1015,1620,258280
-156,-190,110,1063,1601,258293
-173,-176,110,1056,1631,258368
-223,-127,91,982,1620,258310
-223,-82,67,980,1619,258419
-215,-66,107,977,1640,258471
-209,-81,88,1004,1634,258348
-189,-90,87,1006,1656,258241
-171,-100,128,1025,1513,258335
-135,-121,93,1046,1543,258410
-177,-120,76,1047,1606,258397
-178,-112,81,975,1598,258332
-144,-95,54,1009,1629,258280
-142,-62,75,1080,1630,258249
-139,-28,108,1025,1622,258394
-107,-51,103,1005,1600,258336
-110,-67,150,963,1523,258348
-90,-73,128,994,1547,258393
-108,-83,131,1091,1560,258335
-84,-69,153,1064,1569,258439
-67,-29,173,1073,1495,258364
-51,9,160,991,1565,258355
14,12,163,966,1608,258375
35,7,125,1005,1662,258272
34,16,108,945,1688,258245
49,-26,107,981,1615,258294
50,-38,56,996,1650,258359
46,-2,112,1054,1580,258370
67,24,110,1007,1655,258452
106,15,103,952,1649,258506
121,16,141,1006,1591,258386
146,11,95,1060,1638,258327
178,-3,116,1048,1616,258256
177,-60,110,1023,1615,258372
151,-52,77,1001,1644,258334
126,-42,75,950,1634,258313
134,-56,109,1021,1673,258337
164,-58,108,1087,1671,258351
190,-43,123,1027,1607,258288
196,-15,110,994,1604,258262
204,-26,98,1025,1661,258225
207,-63,76,933,1657,258238
175,-91,78,993,1636,258276
149,-31,110,1025,1607,258303
144,8,86,1049,1613,258293
139,-2,134,946,1582,258272
127,-9,146,1009,1660,258311
143,7,151,1016,1542,258279
129,-26,161,1009,1562,258340
136,-95,122,1063,1642,258212
112,-77,111,1033,1562,258312
95,-49,101,1067,1564,258324
116,-70,68,1048,1552,258375
100,-53,162,1029,1638,258422
72,-9,101,1048,1583,258405
76,10,118,1045,1624,258338
74,-43,141,1025,1680,258460
83,-65,115,976,1534,258242
59,-34,94,978,1547,258199
56,-27,114,943,1603,258302
94,-44,112,985,1593,258301
97,-18,136,1019,1567,258271
100,-1,100,1021,1630,258379
116,28,107,1041,1657,258379
120,21,108,1015,1689,258326
109,28,43,1001,1617,258315
64,41,57,998,1623,258266
43,55,57,1001,1595,258332
51,50,45,948,1571,258356
98,68,27,980,1639,258260
130,71,29,1033,1598,258257
152,46,30,1052,1556,258287
173,-10,10,1079,1647,258287
198,-42,25,981,1598,258339
175,-37,69,984,1561,258376
138,36,73,1051,1630,258388
149,104,78,1002,1610,258359
129,130,100,1028,1605,258299
143,140,93,1006,1599,258284
187,130,105,958,1623,258362
209,86,85,987,1591,258384
222,49,85,1043,1588,258328
163,38,134,1040,1566,258394
154,48,150,1108,1633,258408
163,55,140,1069,1614,258337
147,90,150,993,1577,258385
145,105,124,998,1633,258359
130,91,119,1039,1598,258324
135,43,130,1021,1553,258386
150,39,128,946,1604,258334
87,38,125,1016,1595,258312
105,16,177,1014,1553,258385
118,-3,206,1044,1580,258346
105,34,168,1025,1598,258369
115,48,179,1115,1589,258311
109,28,149,1114,1619,258353
95,48,143,1017,1572,258361
61,110,101,1095,1554,258372
-3,69,85,1034,1599,258328
-19,19,138,973,1565,258325
-20,40,148,970,1600,258361
-34,101,134,1014,1610,258396
-33,118,160,993,1594,258341
-55,93,151,1007,1654,258221
-42,104,115,1069,1588,258238
-65,118,123,1043,1609,258317
-136,88,93,1011,1560,258358
-128,82,148,998,1612,258300
-153,91,109,1090,1652,258347
-172,123,131,1091,1653,258375
-192,114,145,1044,1607,258342
-182,68,108,1082,1597,258225
-179,65,99,1093,1571,258307
-201,62,108,1084,1521,258357
-232,48,61,951,1585,258317
-214,61,132,1003,1620,258333
-209,90,102,983,1598,258149
-216,131,65,957,1621,258164
-227,138,84,1041,1641,258356
-219,86,51,1051,1641,258372
-189,67,41,1054,1658,258258
-211,69,71,1062,1646,258355
-187,50,82,1019,1664,258299
-191,42,120,1030,1693,258335
-166,45,160,1021,1623,258309
-140,86,152,996,1634,258347
-115,135,142,1036,1662,258347
-121,114,106,984,1673,258298
-104,78,114,1063,1676,258259
-121,46,100,1063,1579,258332
-119,41,110,1134,1579,258400
-103,40,190,1075,1551,258370
-76,32,147,1027,1556,258285
-57,84,185,1079,1648,258250
-13,84,186,1083,1618,258203
-4,42,129,1046,1613,258161
-14,60,170,1028,1656,258196
-13,68,109,968,1686,258338
-51,51,148,1000,1673,258361
-70,29,241,1027,1576,258305
-34,15,168,985,1553,258325
-50,52,191,982,1590,258368
-35,26,179,993,1653,258398
-43,-46,86,977,1574,258252
-61,-46,115,962,1489,258212
-53,-51,60,1014,1592,258250
-61,-69,61,1046,1649,258377
-74,-48,190,1013,1519,258303
-84,-20,150,1053,1571,258393
-111,34,206,1046,1638,258426
-65,35,274,1014,1635,258417
-80,0,172,1026,1561,258427
-94,6,217,1050,1595,258294
-77,6,194,1066,1563,258233
-117,1,179,1006,1639,258202
-146,30,212,1052,1605,258379
-123,46,176,987,1571,258411
-148,94,198,1015,1591,258312
-136,105,232,1037,1579,258387
-129,37,161,1006,1631,258302
-148,16,193,1031,1581,258406
-155,12,166,1030,1579,258464
-178,-20,135,1011,1606,258345
-168,-51,164,1052,1635,258223
-143,-35,137,994,1631,258321
-125,15,86,1032,1542,258367
-120,17,126,1006,1477,258318
-122,-21,80,1083,1629,258343
-119,-3,59,1070,1596,258281
-132,11,58,1060,1634,258308
-153,-29,61,1040,1582,258349
-138,-70,88,995,1539,258270
-98,-55,96,1067,1580,258384
-110,14,84,1113,1587,258368
-73,-8,65,1040,1532,258354
-66,-50,56,994,1633,258252
-65,-37,19,1033,1593,258261
-76,-25,17,1076,1580,258345
-73,-28,44,1042,1632,258323
-57,-22,59,1046,1592,258330
-59,-5,74,1034,1603,258374
-23,12,125,1073,1605,258286
-6,-13,142,1051,1647,258297
-13,-53,85,998,1654,258299
-2,-85,119,1049,1601,258244
-6,-102,129,943,1685,258343
0,-107,162,985,1631,258371
16,-120,203,991,1555,258222
19,-104,183,995,1512,258227
38,-33,249,984,1512,258327
55,-15,234,1052,1658,258307
53,-81,197,981,1604,258307
49,-75,207,1048,1550,258301
78,-47,170,1041,1673,258416
54,-79,150,971,1664,258334
59,-96,223,1016,1583,258263
74,-63,220,1082,1620,258341
84,11,243,1006,1569,258359
96,-16,241,1015,1642,258308
96,-60,164,923,1603,258333
55,-36,165,987,1622,258261
40,-59,106,1032,1632,258284
9,-111,47,1022,1616,258223
20,-97,114,1069,1601,258291
16,-65,50,1062,1577,258322
9,-20,93,982,1596,258352
27,-23,154,1107,1621,258393
4,-52,72,1061,1636,258330
-13,-69,120,990,1653,258331
-36,-55,113,1026,1664,258287
-57,-62,58,1036,1573,258298
-73,-50,85,1062,1582,258265
-74,-47,102,1031,1700,258457
-70,-16,73,1017,1592,258417
-87,-51,107,1031,1601,258409
-93,-118,63,1003,1588,258439
-84,-98,77,1027,1587,258351
-108,-97,47,1055,1657,258254
-121,-133,28,980,1618,258246
-118,-151,70,995,1633,258286
-124,-110,31,1030,1645,258276
-83,-49,56,1028,1689,258302
-116,-75,46,1004,1694,258248
-109,-107,67,1041,1597,258366
-110,-112,54,996,1595,258336
-108,-98,70,1033,1630,258279
-84,-132,85,1031,1582,258209
-108,-105,116,1064,1576,258367
-74,-87,107,1009,1539,258338
-30,-42,166,1057,1567,258239
-22,-55,135,1013,1550,258276
-14,-54,145,975,1548,258355
-8,-78,175,1009,1526,258329
-7,-92,147,1053,1627,258291
-4,-99,175,1082,1642,258354
16,-103,181,1004,1624,258368
45,-71,172,1094,1542,258342
63,-41,226,1091,1626,258317
104,-82,177,1034,1669,258264
98,-124,160,992,1599,258365
81,-110,159,1025,1593,258364
89,-100,110,1031,1648,258320
61,-117,124,1036,1689,258452
76,-102,168,1042,1554,258301
109,-78,103,1009,1579,258363
84,-31,179,1000,1596,258294
128,-63,146,982,1612,258408
119,-103,89,1064,1616,258296
97,-79,113,976,1595,258219
113,-73,31,1015,1562,258339
119,-69,39,1007,1594,258306
67,-7,65,1038,1638,258291
93,29,67,1001,1644,258221
81,56,110,998,1618,258285
126,26,147,1035,1660,258393
75,-5,105,1029,1605,258256
74,-9,138,976,1591,258244
62,-26,120,1022,1605,258357
50,-48,85,1047,1684,258257
44,-48,77,1054,1635,258298
58,9,66,971,1586,258423
81,87,146,1048,1558,258367
85,88,132,1067,1647,258311
60,48,136,1056,1665,258331
44,56,151,1051,1636,258279
37,45,152,1081,1652,258237
23,-12,94,992,1616,258162
66,-14,124,1003,1649,258351
68,36,161,1134,1600,258304
78,49,136,1057,1619,258320
62,11,141,1050,1684,258292
36,10,128,1030,1661,258329
58,40,78,989,1603,258326
57,-3,60,1068,1616,258314
14,-25,59,1003,1608,258268
18,8,12,1009,1600,258316
23,64,28,967,1612,258267
55,40,52,1018,1566,258253
70,-5,45,1088,1590,258320
74,9,53,1021,1650,258342
109,-2,78,1005,1669,258401
83,-32,49,1048,1662,258355
65,-6,52,991,1600,258323
56,44,25,993,1651,258300
88,26,18,1060,1635,258270
85,37,61,1041,1612,258318
134,66,28,1141,1625,258319
164,52,-3,1129,1573,258377
146,28,39,1038,1620,258293
149,15,13,1011,1603,258210
127,58,41,1027,1633,258265
169,83,62,980,1614,258345
182,113,74,968,1569,258401
130,130,149,1046,1584,258321
135,104,131,1002,1612,258248
149,87,141,987,1589,258241
122,89,229,1004,1621,258328
141,43,137,970,1656,258290
108,53,170,1016,1582,258326
64,91,183,1069,1579,258222
103,114,139,1079,1637,258388
109,157,265,1015,1607,258382
70,158,227,1033,1556,258363
69,149,198,984,1586,258359
41,135,251,1003,1591,258297
37,110,132,985,1590,258339
-9,126,128,1018,1676,258386
-11,110,141,1036,1662,258318
37,108,113,1070,1679,258288
-14,130,141,1112,1610,258383
-20,125,157,1096,1570,258402
-6,96,201,1046,1543,258317
-57,106,206,1055,1528,258343
-81,96,126,994,1560,258320
-120,22,158,992,1607,258385
-138,-4,104,1033,1605,258411
-101,134,60,1059,1631,258312
-101,178,115,1064,1633,258294
-114,51,97,1004,1684,258456
-111,-8,144,985,1590,258272
-137,63,106,1007,1621,258272
-160,50,46,1037,1623,258368
-190,4,61,1024,1640,258174
-180,25,62,1048,1595,258246
-139,56,8,1042,1613,258286
-119,53,61,1099,1583,258339
-145,33,93,1075,1606,258226
-137,27,78,1004,1581,258322
-119,-20,76,994,1637,258290
-179,-46,92,1028,1668,258373
-194,-4,90,1011,1676,258361
-128,39,71,952,1678,258298
-103,3,125,1011,1684,258393
-84,26,125,932,1665,258372
-120,99,147,1115,1624,258374
-117,110,186,1073,1596,258377
-122,40,199,1060,1540,258316
-136,12,170,1062,1443,258293
-88,-3,201,1010,1658,258345
-116,11,174,993,1640,258292
-107,41,222,1045,1638,258349
-99,59,175,1083,1621,258508
-79,64,140,1155,1606,258353
-92,90,210,1031,1604,258287
-86,92,141,1046,1592,258316
-82,98,141,997,1581,258369
-103,113,170,1051,1652,258374
-81,154,154,1054,1671,258346
-81,139,184,1058,1656,258234
-55,108,217,942,1598,258231
-60,50,159,1031,1618,258363
-50,5,175,1040,1596,258332
-64,17,251,1075,1625,258273
-93,51,179,1031,1592,258384
-132,105,198,1055,1573,258253
-131,146,235,1024,1604,258353
-94,150,207,1011,1585,258463
-69,113,252,1013,1649,258383
-90,37,229,1043,1586,258318
-82,35,230,1054,1588,258259
-87,27,155,1083,1596,258224
-91,23,148,1054,1630,258388
-140,21,111,1048,1617,258282
-143,56,105,1085,1626,258259
-86,58,63,1067,1666,258283
-103,102,77,1020,1599,258205
-110,101,74,1013,1555,258274
-108,23,91,1053,1577,258350
-121,-49,144,997,1643,258371
-115,-93,112,1028,1584,258357
-138,-118,60,996,1609,258286
-163,-99,65,1011,1643,258210
-109,-43,56,1056,1619,258340
-141,8,0,1030,1592,258351
-117,9,44,1010,1550,258302
-83,-13,134,1093,1536,258346
-104,-60,133,1111,1535,258257
-88,-110,156,997,1592,258288
-115,-156,170,1096,1649,258304
-97,-105,130,1055,1577,258361
-34,-75,128,1093,1630,258331
-44,-92,110,1033,1612,258399
-46,-110,121,1106,1605,258389
-59,-123,138,1046,1629,258411
-83,-117,133,994,1554,258349
-82,-131,97,1009,1532,258282
-100,-136,167,1030,1575,258217
-70,-133,114,1056,1579,258256
-11,-112,90,1089,1610,258259
-31,-105,108,1066,1660,258250
-14,-132,117,1025,1644,258282
-6,-149,103,1034,1599,258384
17,-133,131,1051,1570,258343
34,-150,88,1031,1561,258311
-10,-121,79,1053,1573,258361
43,-63,117,1035,1553,258398
103,-24,66,1129,1621,258386
88,-5,103,1135,1661,258321
120,-13,159,1075,1677,258400
132,-29,124,970,1711,258496
115,-56,134,984,1647,258284
96,-55,134,1002,1570,258294
61,-63,75,1017,1626,258343
33,-38,177,994,1622,258276
95,-83,157,1099,1598,258273
69,-27,115,1015,1626,258311
91,29,203,960,1620,258285
77,-66,145,979,1598,258286
45,-103,203,976,1549,258281
40,-69,211,1064,1575,258324
-16,-45,145,1041,1647,258288
-21,-54,171,1027,1609,258273
64,-40,145,1012,1604,258371
27,-29,73,1045,1594,258331
30,-25,132,1019,1633,258271
45,-77,134,1045,1647,258301
16,-66,114,1034,1659,258241
-2,-47,97,1039,1691,258397
-63,-77,80,987,1639,258367
-69,-106,63,948,1542,258346
4,-79,65,1019,1600,258328
-31,-71,36,1055,1639,258358
-12,-106,56,1056,1568,258393
-33,-152,90,1070,1619,258417
-55,-181,63,1073,1590,258444
-58,-203,59,1099,1573,258280
-95,-177,76,983,1640,258276
-76,-132,62,1017,1634,258358
-30,-98,37,1046,1638,258363
-63,-76,47,1032,1559,258285
-57,-74,83,951,1632,258316
-66,-88,96,967,1701,258258
-46,-116,105,991,1618,258365
-66,-140,120,1049,1603,258275
-58,-139,154,1089,1625,258262
-8,-88,149,1062,1610,258305
5,-42,150,1025,1579,258304
10,-53,117,1034,1592,258349
24,-63,130,1042,1603,258276
20,-91,125,1012,1594,258240
20,-106,132,1025,1611,258311
7,-102,149,955,1509,258249
16,-89,139,1021,1530,258319
32,-60,175,1012,1568,258316
60,-45,125,1040,1617,258221
73,-16,141,1007,1620,258245
77,-10,182,1070,1664,258233
80,-30,114,965,1638,258336
76,-17,187,1049,1548,258262
58,-5,151,977,1557,258252
55,6,157,973,1569,258265
33,45,203,1046,1541,258270
40,80,137,964,1580,258284
32,117,103,1029,1631,258297
68,90,128,1032,1568,258251
74,9,26,1044,1597,258256
40,11,44,1077,1584,258304
41,28,51,1016,1556,258263
-3,44,-12,1010,1641,258314
9,83,66,976,1711,258200
32,73,58,1032,1664,258317
20,56,84,1025,1610,258297
39,45,136,1017,1564,258277
31,-3,54,917,1635,258334
-6,-6,117,1006,1584,258245
23,-3,104,993,1609,258206
-2,15,94,989,1525,258265
11,44,110,951,1568,258276
17,81,129,938,1610,258396
14,114,93,1038,1653,258305
13,111,174,1061,1667,258348
18,84,146,967,1553,258283
2,76,168,1033,1571,258314
-28,50,166,1085,1555,258347
-36,-12,158,1047,1563,258293
19,-43,175,1067,1586,258257
7,-15,147,1020,1602,258279
25,0,147,1102,1577,258336
67,-33,158,1060,1583,258287
-10,-28,120,1085,1635,258274
7,-20,135,953,1600,258262
0,-42,129,960,1608,258317
-10,-78,70,996,1661,258345
2,-22,87,1015,1632,258405
59,7,21,1027,1652,258350
63,27,4,1043,1637,258335
77,49,-27,1015,1714,258383
82,43,-61,1030,1638,258367
64,35,-12,1047,1639,258370
46,10,57,1044,1613,258371
60,15,57,1043,1576,258382
79,53,99,1052,1599,258350
105,44,89,1052,1634,258376
122,36,121,1085,1648,258435
157,37,148,1085,1638,258452
171,27,81,1096,1658,258367
125,2,72,992,1644,258342
139,1,113,966,1604,258305
118,43,92,1041,1554,258330
116,154,126,982,1609,258302
123,178,120,1027,1632,258318
100,154,158,1054,1580,258512
102,137,130,1041,1579,258376
115,138,117,1019,1627,258289
120,138,210,1063,1656,258371
65,144,208,1044,1679,258349
57,156,174,1004,1630,258365
77,188,235,1027,1630,258298
64,198,221,1027,1545,258227
74,259,219,1044,1586,258349
78,256,195,1080,1663,258233
65,201,168,1062,1619,258217
17,170,183,1043,1606,258336
7,177,124,1055,1602,258314
-21,175,120,1046,1613,258266
-27,183,197,1004,1609,258245
-38,194,113,1017,1608,258276
-16,229,134,1030,1580,258286
-44,202,127,1099,1592,258240
-61,180,61,1082,1633,258287
-75,184,103,1017,1613,258315
-95,124,56,1008,1633,258374
-114,105,54,1048,1591,258301
-109,143,69,1068,1553,258296
-114,173,-2,1064,1610,258249
-68,146,-4,954,1612,258292
-73,93,1,1075,1591,258357
-94,35,-52,1088,1578,258441
-112,10,-18,1019,1607,258383
-85,-12,15,1036,1600,258328
-136,-14,19,987,1554,258310
-136,24,63,936,1641,258340
-141,36,116,1047,1655,258344
-119,28,138,1050,1605,258365
-114,4,167,1037,1581,258359
-125,-15,178,1021,1655,258343
-108,-38,224,1064,1570,258309
-118,-96,252,1034,1606,258268
-129,-118,271,1026,1573,258379
-102,-100,283,1075,1616,258266
-96,-62,234,1102,1599,258270
-76,-32,253,1056,1625,258312
-51,-46,215,1060,1643,258277
-73,-64,163,1044,1613,258252
-70,-57,216,997,1661,258281
-70,-73,246,991,1642,258324
-67,-89,213,1018,1633,258198
-92,-38,268,1010,1639,258208
-54,-13,266,1053,1688,258279
-34,-31,248,1059,1671,258268
-11,-26,255,991,1647,258254
-44,-19,180,998,1640,258343
-56,-23,187,1021,1559,258327
-61,-44,182,1068,1544,258298
-60,-32,146,1074,1603,258320
-72,19,155,1001,1667,258309
-46,38,139,1042,1640,258311
-31,44,125,1029,1631,258333
-45,7,85,1144,1646,258359
-19,-7,29,1080,1600,258266
-25,24,44,1099,1600,258320
-46,23,35,1032,1610,258343
-83,42,10,1055,1625,258313
-106,81,38,1073,1663,258382
-79,84,19,1001,1615,258293
-52,81,35,1055,1658,258254
-75,55,4,1026,1580,258195
-60,30,-27,1005,1574,258304
-61,4,0,1017,1611,258392
-82,-33,12,1008,1602,258252
-101,-10,41,999,1542,258173
-126,32,85,955,1559,258266
-102,75,141,1027,1605,258334
-118,80,184,1054,1606,258305
-119,41,166,1025,1616,258405
-101,-6,210,1041,1652,258389
-122,-29,247,992,1620,258249
-106,-59,170,1061,1607,258387
-116,-73,215,1002,1567,258352
-140,-77,226,1004,1603,258358
-100,-30,213,1104,1594,258420
-102,13,212,1148,1680,258313
-119,-36,152,1066,1607,258392
-148,-89,158,1015,1578,258386
-127,-98,190,987,1570,258324
-120,-157,117,1051,1650,258335
-141,-167,147,1050,1665,258349
-130,-169,150,1044,1636,258320
-86,-147,114,1055,1522,258270
-81,-138,128,1033,1562,258321
-70,-154,97,1019,1545,258390
-64,-180,67,1040,1614,258284
-71,-179,134,981,1581,258298
-54,-192,87,1017,1551,258372
-64,-176,104,1021,1581,258323
-54,-165,163,1024,1549,258289
-37,-129,114,1028,1535,258301
-4,-129,110,1029,1628,258343
16,-160,116,1049,1594,258251
11,-182,83,1071,1618,258313
-2,-160,117,1074,1595,258366
14,-180,118,994,1665,258261
-32,-171,128,974,1658,258283
-51,-123,193,965,1673,258476
-24,-119,159,1049,1590,258505
-13,-110,173,1018,1615,258370
25,-88,151,1114,1596,258367
40,-108,106,1061,1687,258279
25,-126,124,1032,1617,258342
40,-147,92,1039,1624,258395
62,-195,33,1009,1606,258314
-4,-179,79,963,1607,258481
11,-115,96,1052,1613,258329
55,-104,78,994,1631,258311
38,-122,122,977,1576,258336
8,-111,99,1005,1562,258426
10,-81,104,1025,1595,258422
8,-61,99,983,1585,258338
-29,-65,137,1049,1585,258409
-17,-60,146,1022,1530,258382
26,-60,163,1060,1614,258281
27,-75,183,1082,1601,258377
7,-88,154,1045,1677,258373
-12,-62,129,937,1607,258309
-5,-54,138,1041,1545,258377
3,-66,85,1046,1585,258331
-10,-72,81,1073,1594,258364
-8,-53,99,1040,1639,258412
7,-21,78,990,1616,258292
38,8,84,997,1592,258297
36,-29,80,1036,1587,258292
20,-87,75,1038,1596,258330
21,-110,122,990,1566,258293
3,-142,48,1034,1610,258261
-66,-127,59,1014,1645,258327
-64,-34,110,1010,1603,258315
-34,20,88,1047,1638,258260
-33,53,101,1039,1643,258214
-31,46,118,1023,1592,258331
-6,9,79,1037,1619,258360
-4,-26,116,948,1612,258352
9,-57,94,996,1611,258245
-9,-55,106,1015,1560,258344
6,-40,161,974,1579,258390
15,-27,156,1082,1591,258343
-8,28,137,1066,1579,258422
-28,37,117,1055,1572,258332
-14,-16,101,986,1664,258301
9,-42,165,983,1619,258298
17,-29,145,1033,1601,258311
18,-55,175,1046,1526,258322
22,-59,222,1051,1628,258329
65,-51,160,1066,1676,258343
66,15,154,1091,1646,258362
56,18,93,1064,1664,258341
54,-12,104,1036,1655,258259
75,-25,125,1078,1534,258310
93,-29,58,980,1558,258303
55,-23,84,959,1656,258275
95,-23,150,1017,1595,258272
119,-6,65,1028,1557,258335
134,16,92,948,1648,258306
133,-37,53,973,1619,258343
154,-80,-8,948,1545,258361
142,-52,45,1021,1631,258274
128,-39,-14,1004,1675,258297
73,-35,15,1051,1611,258301
89,8,122,1092,1569,258363
116,32,80,1086,1614,258338
92,64,119,1016,1555,258340
135,85,174,1044,1627,258263
153,72,106,1112,1648,258310
139,72,125,1020,1632,258309
137,40,107,996,1565,258348
95,33,67,1032,1543,258262
121,84,138,1009,1648,258265
148,134,92,1032,1627,258376
117,139,124,1031,1632,258337
118,157,160,969,1641,258345
138,167,110,961,1584,258316
117,192,65,1067,1598,258213
91,191,108,1043,1598,258319
65,145,81,1012,1616,258314
49,164,165,1014,1661,258385
65,199,136,1015,1630,258366
33,263,99,1025,1653,258274
22,275,107,1037,1589,258321
3,197,130,1048,1605,258343
-8,158,139,1036,1612,258327
-9,176,160,1063,1581,258212
-33,182,184,1023,1606,258283
-18,163,231,1060,1569,258415
11,152,226,1025,1613,258341
5,198,195,1024,1636,258309
23,234,147,1032,1574,258314
15,223,135,1039,1632,258299
1,200,130,1052,1589,258317
-7,153,132,1020,1600,258351
-49,131,178,987,1569,258314
-49,114,144,1035,1636,258281
-38,78,116,1022,1651,258308
-36,87,160,1056,1582,258315
-25,96,81,1072,1663,258284
-47,64,35,995,1728,258449
-44,-7,81,1027,1656,258322
-47,-30,53,1075,1593,258335
-68,27,62,995,1640,258408
-58,12,59,1046,1673,258318
-52,-9,15,982,1648,258363
-57,23,85,1002,1604,258288
-76,60,121,1017,1628,258378
-68,-12,72,1042,1654,258370
-46,-22,187,999,1685,258327
-78,-28,134,985,1676,258248
-75,-24,154,945,1607,258243
-70,3,232,991,1660,258231
-49,48,148,1016,1695,258349
-77,70,124,978,1694,258343
-67,71,127,1040,1648,258292
-60,6,64,1017,1567,258253
-84,36,115,972,1628,258211
-86,48,124,1057,1627,258276
-93,58,124,1025,1610,258313
-88,100,208,1004,1609,258299
-75,97,156,959,1670,258288
-114,155,180,1013,1670,258298
-99,194,208,1023,1608,258302
-87,161,142,990,1598,258295
-154,133,157,977,1558,258399
-151,98,141,953,1631,258281
-139,106,121,1113,1651,258283
-143,157,192,1056,1652,258320
-123,170,132,1083,1626,258343
-140,188,141,1079,1638,258276
-152,187,131,1002,1605,258367
-158,168,97,1007,1586,258392
-178,138,74,1055,1602,258291
-166,115,119,1026,1605,258248
-210,64,146,1089,1600,258326
-134,73,166,1012,1609,258340
-107,160,173,1062,1663,258350
-186,202,10,985,1639,258428
-98,160,139,1027,1611,258398
-114,111,61,1024,1591,258360
-48,144,225,1028,1615,258171
-145,109,128,1057,1654,258156
-83,81,46,1013,1614,258270
-54,29,193,992,1636,258341
-41,38,140,1039,1622,258326
-75,115,54,1063,1613,258283
-39,127,119,1078,1606,258293
-101,0,41,1035,1623,258333
-12,23,60,949,1673,258330
-81,18,96,1049,1640,258378
-42,-78,119,1056,1696,258344
3,-113,286,999,1624,258314
11,-43,144,1023,1551,258288
-11,-30,30,991,1615,258259
-23,-80,223,1059,1615,258325
33,-105,172,1036,1606,258306
-9,-45,145,1047,1575,258276
-4,-65,117,1061,1651,258378
-12,-198,167,1079,1614,258334
31,-173,243,1053,1640,258380
48,-76,65,1091,1608,258416
73,-35,190,1052,1616,258389
29,-140,120,1023,1626,258434
47,-140,84,1048,1605,258331
-20,-70,129,1010,1598,258342
21,-101,154,1029,1643,258407
-14,-122,169,1083,1673,258439
-4,-71,192,1021,1647,258312
-6,-82,93,1093,1596,258406
2,-51,150,1046,1558,258275
29,-58,146,1063,1664,258258
-3,-96,9,1087,1658,258325
-5,-122,84,1099,1638,258219
24,-122,93,1091,1594,258224
-3,-94,41,1060,1668,258239
3,-48,161,1101,1697,258190
26,-62,55,989,1659,258314
12,-53,119,980,1599,258277
24,-84,113,998,1630,258315
20,-125,108,1014,1631,258358
23,-140,157,1047,1592,258345
18,-129,159,1016,1590,258322
4,-157,99,996,1612,258361
17,-171,185,1035,1614,258429
77,-128,96,987,1626,258353
29,-55,102,1000,1581,258276
18,-69,137,1039,1598,258312
30,-145,87,1001,1637,258333
7,-130,159,1030,1651,258328
-9,-125,130,1030,1543,258338
-3,-161,117,1041,1624,258372
12,-136,172,1013,1561,258442
2,-119,102,983,1499,258359
12,-80,127,958,1565,258244
39,-91,122,1023,1652,258302
16,-75,72,1034,1572,258249
-13,-36,110,1029,1620,258206
-29,-85,130,977,1631,258252
-31,-144,186,1018,1625,258283
-25,-121,188,1030,1586,258348
11,-90,119,1012,1556,258393
9,-69,168,1006,1549,258323
16,-119,96,1032,1633,258344
13,-114,74,991,1588,258312
21,-97,129,1048,1641,258346
29,-118,91,1076,1621,258345
-2,-155,138,1097,1646,258257
20,-167,181,1045,1636,258296
48,-169,128,1041,1686,258301
71,-160,163,1010,1651,258377
71,-162,124,1016,1583,258329
62,-194,37,1032,1572,258356
51,-185,134,1019,1554,258310
34,-168,52,1041,1571,258393
56,-163,26,1028,1558,258404
48,-133,90,1022,1586,258348
66,-117,30,989,1597,258341
74,-86,23,1029,1576,258364
46,-111,57,1026,1598,258321
46,-147,32,988,1643,258305
16,-131,87,1042,1669,258378
15,-142,91,1043,1592,258432
-14,-163,90,1053,1620,258422
9,-147,130,1086,1598,258338
50,-97,119,1040,1596,258380
4,-78,76,1038,1648,258252
19,-85,120,1055,1665,258319
-22,-90,70,971,1641,258308
-74,-101,58,1004,1550,258196
-53,-120,155,1007,1586,258202
-90,-166,104,1029,1580,258280
-65,-100,184,949,1623,258240
-37,-27,163,1007,1598,258223
-54,-12,140,1060,1656,258294
-72,-26,239,998,1636,258372
-92,-45,134,928,1694,258326
-68,-24,224,1001,1657,258352
-136,-23,210,968,1582,258419
-174,-35,77,983,1591,258300
-136,-15,171,964,1604,258175
-127,-39,132,1011,1592,258360
-136,-19,15,1017,1599,258331
-94,8,109,1000,1623,258351
-115,-68,44,994,1649,258284
-90,-62,132,1017,1570,258309
-88,-57,164,1061,1572,258330
-66,-77,94,1028,1580,258343
-94,-36,173,1060,1681,258254
-62,30,119,1081,1641,258346
-32,46,91,1059,1636,258355
-70,9,125,1075,1660,258339
-39,-12,126,1015,1640,258281
-20,8,136,989,1607,258346
-76,-6,141,993,1593,258338
10,-50,147,985,1622,258323
-9,-66,107,975,1688,258304
-58,20,70,1078,1678,258395
43,72,34,1062,1643,258354
1,-16,-16,1074,1587,258338
-37,-88,93,1054,1606,258339
-27,-4,43,1054,1642,258330
-103,74,10,1019,1649,258275
-123,43,162,957,1581,258274
-65,-12,132,1016,1606,258278
-26,73,168,976,1594,258267
11,66,152,983,1569,258261
50,-39,87,937,1633,258269
-30,-15,255,1038,1593,258238
-27,87,160,976,1586,258307
34,152,51,1043,1610,258273
32,106,171,1024,1593,258332
16,17,67,983,1622,258323
78,74,61,959,1583,258315
118,115,143,986,1644,258242
83,49,32,1019,1688,258354
124,11,174,1028,1557,258356
89,55,228,1054,1553,258454
51,85,62,1126,1637,258294
11,82,117,991,1584,258193
8,85,225,990,1599,258285
63,143,130,1003,1591,258369
41,184,104,1006,1625,258327
55,106,174,997,1607,258328
49,-14,92,987,1564,258335
37,20,88,1020,1611,258373
42,80,134,1060,1665,258330
43,30,146,1125,1586,258242
62,48,202,1069,1563,258146
107,191,210,997,1635,258307
111,282,198,1003,1730,258319
79,254,152,1034,1589,258342
47,235,142,997,1584,258290
43,220,207,1059,1606,258428
46,122,149,1026,1497,258353
16,81,185,1040,1589,258264
-43,176,264,1064,1622,258294
62,239,79,1052,1650,258324
87,208,114,1032,1674,258264
2,178,91,1060,1613,258300
9,261,-69,1047,1605,258334
94,257,19,1027,1606,258265
-49,131,62,1071,1604,258366
-112,121,100,1046,1537,258263
120,196,92,1033,1572,258238
-30,192,173,1016,1677,258255
-8,159,125,984,1648,258297
185,162,196,1049,1619,258235
-85,151,115,1080,1628,258202
33,174,229,965,1560,258386
29,71,178,1031,1601,258390
-65,36,160,1020,1559,258431
-80,126,261,959,1596,258389
65,123,92,1005,1704,258315
79,119,70,1021,1666,258321
36,127,79,1033,1628,258318
-4,108,31,1012,1729,258335
17,113,-126,970,1679,258320
22,134,59,1031,1587,258317
8,55,-83,1055,1565,258370
-3,110,-43,1033,1541,258370
-54,171,153,985,1647,258380
50,110,-32,991,1643,258352
-22,170,243,1015,1642,258267
-40,216,89,1025,1598,258345
-25,183,72,1022,1606,258298
-32,70,172,1055,1601,258240
-30,19,130,1023,1624,258157
-57,98,172,1023,1606,258159
-97,124,207,1058,1620,258351
-96,122,5,1061,1652,258317
-106,152,146,1005,1675,258293
-122,115,124,989,1660,258367
-144,11,-15,1010,1526,258348
-128,4,196,974,1573,258372
-156,-8,77,1052,1547,258315
-157,77,115,1041,1560,258287
-80,148,247,1011,1622,258395
-98,112,64,1001,1669,258375
-123,92,204,1028,1685,258346
-61,103,231,1032,1707,258324
-68,87,272,1066,1605,258343
-147,29,196,1003,1618,258387
-83,42,266,887,1624,258421
-76,84,259,1009,1657,258328
-102,56,141,994,1669,258260
-36,37,206,1031,1636,258172
-42,44,217,1078,1604,258240
-118,-7,114,1043,1667,258358
-109,-43,243,1009,1644,258400
-95,-14,242,1007,1572,258329
-103,38,162,989,1563,258295
-112,88,250,977,1597,258407
-80,31,127,991,1560,258378
6,-2,121,970,1595,258331
-26,-9,202,1061,1604,258268
12,-33,106,1060,1602,258283
-21,-90,213,1008,1555,258261
-81,-221,3,991,1551,258393
-36,-140,126,1001,1546,258285
4,-39,228,1024,1599,258247
-111,-110,-133,1042,1601,258308
26,-49,-35,982,1557,258108
-57,39,196,1050,1620,258246
-61,-36,-301,1074,1602,258341
33,-32,139,1065,1610,258377
-105,-76,99,1078,1689,258434
-86,-140,-242,1030,1620,258326
16,1,355,991,1621,258327
-14,5,139,1050,1655,258410
0,-4,-145,1001,1654,258240
-103,14,253,1103,1639,258306
22,-48,167,990,1656,258486
-40,-33,56,1100,1631,258332
-111,-22,204,977,1710,258241
-38,-129,138,970,1642,258296
-94,-113,72,991,1585,258271
-102,10,194,968,1614,258267
-56,-35,176,1069,1679,258355
-93,-75,105,1035,1631,258386
-94,-55,137,1030,1593,258331
-117,-85,188,1060,1613,258320
-100,-167,178,1009,1657,258413
-125,-80,270,1037,1614,258362
-172,-20,260,1013,1616,258309
-84,-116,136,1046,1623,258257
-76,-95,280,1016,1519,258309
-103,-137,79,1031,1639,258346
-52,-196,114,1012,1636,258295
-21,-214,291,1038,1615,258322
-83,-240,196,1007,1561,258377
-91,-207,119,906,1574,258333
-52,-153,161,1004,1590,258304
2,-52,68,1056,1614,258333
-45,-13,19,1066,1601,258306
6,-55,-63,1045,1585,258374
39,-74,70,1031,1563,258338
30,-129,0,1000,1554,258326
33,-156,15,1040,1526,258326
56,-96,144,988,1613,258390
21,-93,-34,1030,1604,258265
67,-55,-33,1003,1614,258324
69,-41,165,1030,1658,258242
118,-66,-27,963,1616,258260
107,-63,97,1043,1633,258318
130,-115,117,1062,1610,258391
170,-188,22,1013,1623,258483
129,-253,56,1074,1610,258403
222,-177,134,1178,1632,258251
200,-204,-12,1115,1599,258261
219,-131,49,1055,1632,258293
231,-163,49,1038,1600,258417
263,-137,45,1076,1597,258318
195,-141,100,1076,1669,258327
253,-167,97,991,1657,258359
174,-142,238,1066,1576,258299
255,-140,76,1002,1546,258310
163,-64,180,1012,1622,258333
258,-95,64,1043,1664,258317
161,-93,128,1028,1731,258441
235,-101,116,1011,1551,258388
119,-91,260,1115,1578,258310
178,-153,74,1022,1618,258327
27,-152,205,1077,1615,258275
150,-123,161,1037,1602,258242
81,-69,241,1021,1641,258275
103,-69,168,1019,1600,258323
36,-101,121,1003,1686,258349
52,-163,227,1037,1616,258278
22,-233,207,1035,1570,258283
54,-209,237,1071,1560,258351
-32,-182,264,1058,1588,258304
-15,-176,136,1025,1554,258303
-58,-126,144,1053,1587,258236
-44,-79,155,1038,1658,258237
-3,-129,102,984,1608,258270
-94,-187,41,997,1635,258349
-23,-138,174,984,1651,258317
-112,-195,81,1010,1659,258312
-64,-235,59,964,1646,258207
-39,-136,259,983,1642,258283
-85,-135,-53,1019,1629,258440
-114,-93,-57,1014,1675,258291
6,-18,208,1059,1581,258345
-72,-67,-56,1066,1664,258328
-157,-82,-60,1054,1675,258261
-53,-25,266,1026,1649,258237
-186,-80,12,1040,1593,258310
-115,-6,-82,1038,1579,258304
-88,106,218,1045,1604,258321
-114,50,-133,1017,1683,258408
-64,74,17,1001,1592,258308
-50,60,72,1051,1608,258347
-83,16,-93,1066,1628,258333
-33,19,74,1035,1602,258304
-113,-19,183,1035,1609,258402
60,33,112,984,1621,258272
-68,80,171,1064,1686,258338
-35,94,-5,1015,1553,258227
65,88,98,1031,1559,258306
-17,48,101,1022,1583,258325
5,31,105,1049,1613,258352
43,-8,274,1069,1592,258451
-37,-37,209,1011,1550,258407
-11,2,180,1003,1660,258482
-14,123,332,1060,1667,258429
-15,65,188,1105,1670,258302
18,-25,140,1014,1603,258247
-22,-1,327,968,1609,258318
3,-5,169,1017,1643,258361
1,28,289,1082,1549,258362
-66,19,368,1069,1589,258315
-27,22,195,987,1572,258369
-70,82,171,1001,1580,258375
-107,110,241,974,1630,258383
-68,88,30,1062,1609,258354
-69,104,92,1091,1608,258218
-123,101,233,1006,1620,258269
-93,73,81,1010,1641,258373
-110,60,168,1031,1642,258303
-158,94,124,988,1663,258182
-168,59,-40,992,1577,258411
-132,86,155,961,1629,258327
-97,32,118,1035,1640,258350
-139,61,100,1032,1662,258220
-181,119,211,1026,1606,258221
-147,26,85,980,1646,258241
-179,55,204,1031,1620,258247
-205,137,223,1080,1562,258310
-154,159,-3,1053,1653,258320
-155,157,110,1040,1619,258404
-132,94,29,1042,1659,258361
-138,74,-49,984,1613,258208
-164,46,111,1010,1611,258250
-112,69,110,1005,1574,258360
-116,118,136,1071,1591,258490
-139,133,109,1057,1583,258311
-95,106,81,1028,1649,258295
-106,159,240,1056,1608,258334
-68,199,94,1004,1585,258368
-90,231,172,991,1611,258297
-79,199,210,1006,1628,258334
-90,110,136,1015,1664,258304
-98,90,191,1148,1626,258311
-73,134,239,1059,1623,258280
-63,177,136,1073,1618,258269
-6,214,145,1059,1667,258327
-13,201,58,1069,1582,258318
7,196,-5,1006,1515,258291
49,173,134,1046,1576,258350
58,67,116,1113,1625,258370
23,70,118,1112,1630,258330
50,141,143,1081,1631,258384
106,148,99,1033,1642,258335
138,137,91,966,1625,258259
75,154,75,1033,1596,258326
93,154,-9,970,1661,258314
96,106,128,938,1653,258309
2,64,127,1044,1617,258382
48,97,144,988,1580,258304
57,61,190,984,1601,258308
44,36,120,959,1593,258300
64,63,180,971,1546,258245
81,53,128,982,1629,258488
46,-29,117,1046,1653,258385
125,-28,220,1052,1533,258227
59,-12,195,979,1583,258382
79,-32,110,1045,1586,258319
86,36,271,1139,1596,258388
58,25,159,1070,1568,258363
42,37,130,998,1581,258286
55,71,214,1028,1573,258285
-17,74,126,1022,1652,258293
-9,66,134,1009,1602,258306
-11,-4,184,979,1622,258311
-57,5,168,1038,1612,258328
-38,73,209,986,1619,258343
-99,66,56,1031,1693,258299
-61,87,15,1057,1631,258369
-57,111,27,993,1576,258408
-110,79,-62,1089,1578,258296
-39,66,88,1106,1587,258291
-35,22,129,1048,1524,258334
-102,13,59,1046,1565,258311
-56,90,166,1108,1557,258314
-41,138,86,1071,1648,258390
-64,139,45,1034,1629,258347
-27,170,143,976,1606,258257
-69,103,26,1025,1617,258352
-83,64,27,983,1641,258313
-72,92,160,999,1615,258251
-91,102,32,1012,1600,258225
-32,137,109,1096,1553,258245
-74,96,94,1087,1600,258354
-27,81,-76,973,1537,258342
-4,122,-14,1024,1576,258208
-8,129,-16,1084,1617,258287
-35,122,1,1032,1637,258322
9,93,59,1039,1635,258360
-16,69,82,987,1572,258335
-37,80,157,1098,1576,258306
26,84,210,1010,1608,258272
76,76,154,1043,1623,258291
97,90,191,1003,1611,258337
34,139,109,964,1668,258312
85,90,214,978,1623,258198
40,-7,251,986,1653,258267
57,-73,229,1022,1585,258365
36,-46,311,1035,1622,258380
64,-60,237,1030,1631,258286
63,-17,210,1032,1661,258246
25,47,148,1030,1615,258257
67,50,133,1020,1626,258385
7,-33,208,1055,1669,258360
3,-106,162,1045,1562,258375
51,-121,195,1033,1580,258280
96,-136,251,1041,1642,258339
80,-148,248,1035,1609,258383
96,-105,210,1072,1583,258344
48,-98,179,959,1647,258353
22,-139,106,962,1616,258384
-17,-118,216,1036,1623,258294
34,-175,63,1059,1643,258366
-1,-147,163,1051,1593,258349
-26,-121,141,1082,1592,258287
24,-133,-96,991,1565,258288
25,-103,49,1030,1580,258294
-30,-98,-3,1034,1612,258317
-37,-89,-87,1004,1604,258293
-58,-82,43,1064,1608,258349
-39,-75,99,1059,1536,258332
-29,-28,84,1047,1623,258337
-47,-22,168,1021,1600,258295
-41,-86,112,971,1613,258350
-22,-93,156,964,1602,258243
-25,-86,-22,1036,1660,258330
20,-96,8,992,1652,258390
-79,-187,60,1009,1603,258417
-15,-262,-25,1023,1536,258274
-18,-205,150,1043,1590,258357
-81,-111,9,1017,1618,258416
0,-91,6,1030,1669,258286
-53,-122,113,1069,1612,258285
-37,-139,-53,1031,1587,258262
9,-118,0,1080,1581,258364
44,-211,161,1048,1586,258427
49,-292,33,1001,1575,258362
-16,-181,150,1024,1555,258359
3,-108,164,1050,1613,258373
68,-98,108,1095,1623,258286
38,9,144,1031,1619,258216
-3,13,-99,1060,1657,258354
35,-91,-3,1048,1603,258231
77,-212,124,1028,1557,258227
88,-198,34,1004,1606,258337
84,-66,194,990,1670,258395
113,-51,238,1027,1660,258454
155,-50,224,1009,1611,258403
118,-69,212,1006,1628,258350
128,-89,138,946,1572,258392
172,-45,219,1071,1588,258387
167,-36,213,1123,1468,258513
157,-70,160,972,1615,258419
164,-77,219,1039,1600,258343
162,-72,244,1006,1634,258329
135,-80,141,1011,1606,258333
173,-57,251,1037,1555,258342
147,-70,153,1088,1605,258313
143,-89,112,976,1566,258251
72,-94,151,1052,1572,258286
87,-96,119,1025,1595,258312
78,-129,163,1052,1650,258285
62,-119,214,1110,1642,258384
48,-135,195,1056,1684,258221
31,-129,101,1085,1657,258293
5,-104,113,1060,1639,258278
25,-143,88,992,1659,258299
-47,-191,70,1076,1658,258429
-55,-168,117,1090,1599,258332
-69,-93,61,1079,1582,258361
-32,-63,61,1039,1633,258298
-67,-58,50,992,1609,258245
-82,-41,-14,983,1619,258289
-92,-28,-6,993,1642,258296
-94,-31,-22,1070,1647,258211
-128,-53,-5,1044,1582,258313
-145,-42,97,1060,1587,258350
-167,-49,71,1062,1642,258362
-77,-42,181,1007,1559,258341
-108,-14,123,953,1627,258306
-127,-20,84,959,1632,258207
-103,-41,127,967,1577,258255
-122,-53,99,1006,1577,258315
-149,-28,151,1124,1657,258286
-178,-44,130,1010,1618,258316
-130,-71,139,927,1584,258325
-74,-14,248,1009,1573,258348
-104,-45,98,1040,1597,258366
-75,-16,163,992,1637,258309
-84,55,217,1040,1648,258395
-50,63,35,1019,1648,258345
-74,98,224,1011,1639,258257
-155,12,153,940,1613,258232
-91,10,177,946,1569,258372
-104,51,300,1060,1563,258434
-104,70,171,1066,1556,258370
-65,78,203,1050,1710,258413
-89,78,152,1040,1608,258415
-59,108,92,979,1641,258419
-88,67,56,1076,1662,258233
-59,12,94,1010,1630,258296
-92,54,166,992,1634,258338
-57,88,130,936,1608,258306
-68,52,87,997,1662,258370
-54,54,211,1060,1566,258324
-112,66,17,1115,1607,258356
-24,63,100,1043,1589,258327
-90,25,243,1061,1661,258300
-94,-21,30,1040,1615,258385
-70,59,237,1035,1559,258275
-84,47,120,965,1630,258351
-41,0,64,1005,1658,258229
-110,-20,125,1041,1541,258281
-42,5,72,1016,1596,258295
-39,58,102,1014,1608,258252
-112,97,151,1018,1550,258316
-123,55,117,1019,1576,258337
-119,42,216,1007,1587,258283
-76,64,247,1055,1601,258259
-64,59,154,1056,1629,258195
-99,63,196,1041,1650,258429
-104,89,144,1020,1613,258389
-75,124,203,1056,1600,258286
-169,139,147,1012,1486,258322
-173,62,93,1021,1603,258245
-157,79,256,1062,1639,258312
-127,102,143,1071,1678,258392
-109,135,111,996,1574,258314
-127,83,122,963,1575,258362
-79,100,67,1012,1584,258354
-84,119,84,1021,1557,258389
-113,25,128,1015,1663,258339
-90,-62,195,1056,1650,258311
-128,3,234,1057,1642,258276
-77,81,121,980,1668,258290
-70,27,146,1044,1629,258322
-104,-9,152,1065,1597,258288
-25,41,68,1009,1670,258399
-58,52,66,1028,1656,258360
-53,-46,56,1011,1651,258379
-37,-66,112,1015,1580,258295
-28,2,136,1049,1593,258291
11,49,97,1019,1636,258300
-13,28,118,1065,1669,258345
-26,94,65,1017,1625,258383
41,183,-1,1018,1566,258343
-2,197,7,1087,1584,258359
-39,164,17,1089,1630,258321
8,147,104,1071,1578,258325
0,163,141,965,1633,258353
53,161,83,1091,1669,258393
50,207,67,1016,1617,258348
33,254,6,1051,1618,258268
86,274,158,1018,1556,258231
91,245,304,1057,1614,258314
80,218,152,1043,1666,258339
33,197,38,1071,1602,258312
25,119,-36,1101,1507,258335
109,69,189,1045,1548,258384
73,61,307,1088,1600,258420
98,131,281,947,1615,258483
125,141,263,1025,1654,258453
60,-25,53,1050,1663,258318
92,-43,154,1017,1598,258234
51,54,276,964,1599,258258
51,99,190,948,1644,258272
35,54,409,976,1622,258231
27,-40,213,996,1582,258347
50,9,70,1014,1572,258331
40,48,142,1135,1654,258319
35,5,67,1082,1644,258350
56,9,189,1023,1581,258349
14,19,205,1055,1608,258447
38,-16,70,1034,1608,258428
48,6,111,1070,1612,258318
-12,51,64,1045,1634,258281
26,48,2,1041,1623,258213
-12,23,165,1034,1649,258302
-37,-29,21,1011,1626,258385
-24,39,163,1028,1585,258323
-13,-13,155,1135,1606,258286
-36,-100,7,1114,1650,258260
-36,-49,114,1098,1608,258207
-30,-60,-115,1016,1601,258287
-7,-8,-25,994,1548,258239
-32,-26,32,1061,1620,258231
-55,-9,2,1070,1634,258298
-88,-8,39,1049,1566,258304
-73,-49,59,1067,1531,258332
-83,-109,50,1065,1550,258425
-54,-93,131,1005,1622,258386
-30,-62,118,1116,1552,258380
-21,-24,99,1029,1559,258325
7,8,178,1020,1605,258151
-70,23,58,1045,1603,258254
-99,27,112,1030,1572,258276
-48,24,150,1030,1643,258259
-125,9,116,1059,1631,258307
-91,-2,159,1015,1595,258259
-89,-25,116,1030,1626,258372
-47,-11,166,1050,1622,258309
-86,26,96,1070,1641,258353
-74,35,141,1051,1598,258296
-69,6,264,1058,1608,258354
-43,-27,270,1014,1581,258431
-99,16,244,990,1577,258389
-53,35,232,1021,1649,258340
5,-43,162,1044,1668,258344
5,-24,155,1082,1586,258347
-23,-8,65,1039,1592,258326
67,-38,48,971,1600,258310
57,-106,161,1064,1551,258383
63,-109,57,1000,1582,258348
42,-80,154,1023,1650,258246
49,-60,197,1023,1548,258348
106,-80,103,1035,1582,258324
90,-43,186,1079,1641,258377
36,-62,83,1056,1606,258318
45,-73,66,956,1652,258366
8,-96,163,1017,1663,258331
24,-133,21,1042,1630,258338
-3,-138,77,1007,1657,258328
51,-153,39,990,1642,258426
147,-135,-49,1042,1595,258331
126,-93,11,1088,1675,258303
118,-69,-6,1033,1592,258265
157,-35,65,1032,1552,258278
124,-50,192,996,1634,258365
133,-89,199,1000,1591,258375
91,-80,222,987,1540,258279
115,-63,179,1073,1612,258300
113,-67,153,1048,1616,258304
118,-65,133,1036,1660,258268
136,-64,100,1102,1616,258280
102,-62,68,1068,1680,258377
109,-89,102,1040,1618,258394
66,-122,114,1089,1592,258442
44,-132,119,1081,1659,258277
63,-132,97,1050,1622,258335
60,-103,13,1032,1583,258308
57,-93,-18,1031,1580,258225
115,-121,-31,997,1634,258357
104,-141,63,1039,1591,258432
96,-118,136,1004,1586,258273
82,-70,141,1046,1652,258307
88,-70,109,965,1731,258377
95,-60,136,992,1650,258362
113,-23,85,1007,1612,258375
116,23,78,1021,1566,258326
71,83,65,960,1640,258231
49,44,76,992,1596,258373
37,63,156,1006,1596,258347
18,8,114,1037,1589,258409
-4,-33,148,1039,1633,258359
11,-46,169,985,1554,258365
88,-43,97,1024,1614,258361
40,5,40,1087,1619,258298
78,37,-8,991,1609,258252
74,29,-2,1000,1629,258281
77,19,62,1027,1555,258363
66,0,176,1067,1563,258334
51,-25,162,1060,1592,258200
113,-28,200,997,1537,258254
98,-4,191,967,1553,258314
60,-6,97,1036,1576,258309
134,24,131,948,1609,258345
92,8,132,994,1667,258267
63,-26,110,1041,1661,258258
19,-26,208,1004,1589,258388
-13,-46,108,1007,1626,258297
24,-66,148,952,1568,258258
1,-69,169,1041,1551,258220
-17,-48,36,1068,1536,258328
27,-17,99,1061,1579,258350
27,-13,149,1001,1583,258286
7,-29,114,944,1628,258355
16,-29,242,1059,1626,258419
23,-53,135,1048,1629,258326
35,-22,175,1024,1608,258275
23,-27,95,1056,1624,258316
42,-41,63,1056,1590,258326
-15,-17,126,1060,1539,258346
-41,-17,42,1050,1625,258409
-25,-36,76,1019,1635,258312
-89,-80,123,968,1616,258355
-90,-122,110,990,1575,258444
-111,-105,175,1011,1566,258377
-84,-77,118,968,1601,258341
-124,-52,50,1028,1636,258291
-176,-8,89,1000,1587,258322
-151,-1,130,1051,1552,258394
-170,-24,188,1077,1571,258286
-202,-117,176,1013,1689,258377
-190,-140,187,1018,1570,258407
-196,-58,191,1026,1625,258297
-182,-45,63,1064,1662,258273
-156,-6,113,1062,1632,258323
-173,29,62,1048,1642,258365
-197,54,43,1048,1602,258329
-208,47,187,1022,1660,258270
-226,15,196,1001,1603,258291
-283,54,284,1034,1542,258382
-267,58,262,1040,1543,258290
-233,46,193,1008,1641,258345
-242,52,177,991,1621,258374
-220,64,97,982,1650,258329
-199,73,105,1077,1561,258270
-218,61,223,1011,1647,258433
-188,-3,165,1047,1651,258438
-212,36,239,1100,1549,258349
-211,120,267,1006,1591,258356
-238,101,122,1044,1633,258388
-224,83,157,1030,1611,258309
-149,136,137,1049,1591,258237
-174,131,77,1085,1568,258264
-235,75,108,1040,1567,258261
-157,10,212,1040,1574,258345
-161,-29,233,1120,1529,258260
-139,-23,191,1035,1503,258322
-144,8,192,1007,1557,258261
-105,48,110,940,1604,258399
-68,77,106,1021,1586,258274
-128,106,85,1028,1611,258332
-130,116,139,1000,1664,258364
-72,40,191,1013,1633,258344
-64,13,125,1052,1583,258441
-52,99,145,1031,1595,258298
-59,107,153,1034,1701,258357
-3,68,108,1066,1634,258361
23,111,113,1095,1545,258319
-22,186,32,1037,1630,258341
6,130,84,1063,1637,258267
1,52,212,1050,1586,258385
-48,71,120,1043,1569,258370
-57,130,158,1022,1611,258311
-33,46,190,1080,1630,258354
-11,19,88,1086,1572,258295
-18,128,103,1014,1579,258332
-30,101,90,1046,1651,258362
-4,35,206,1079,1606,258337
-40,72,247,982,1603,258374
-49,96,166,1021,1601,258380
-61,100,238,983,1677,258352
-71,33,117,969,1671,258365
-23,93,28,1003,1599,258310
-24,185,9,1049,1591,258371
-46,152,-8,999,1625,258412
-36,98,98,979,1621,258262
-80,53,163,1012,1645,258360
-34,79,120,1036,1606,258335
-20,129,224,1046,1586,258414
-74,128,118,1051,1591,258305
-14,157,41,952,1599,258317
9,150,16,1017,1585,258302
-50,119,-54,1041,1612,258278
-7,94,20,1077,1609,258342
-15,35,101,1013,1529,258385
14,24,121,991,1535,258353
23,104,214,1041,1574,258290
3,108,90,959,1668,258268
56,98,132,966,1590,258356
65,121,100,969,1620,258290
33,132,43,1023,1654,258306
48,55,152,1039,1680,258276
45,-54,221,1027,1592,258295
62,-43,217,998,1552,258380
49,-6,270,1045,1580,258240
90,-96,121,984,1651,258314
144,-96,153,1034,1578,258323
145,-34,108,1022,1528,258290
159,-5,46,1085,1695,258235
175,-29,155,1050,1620,258293
125,-87,143,1017,1600,258372
121,-54,130,1024,1589,258329
84,-28,185,1104,1613,258300
107,-86,72,1096,1617,258227
128,-64,136,1109,1584,258337
60,-39,34,1065,1672,258410
94,-36,34,1037,1633,258353
93,-103,135,1097,1653,258375
58,-121,91,1050,1599,258328
47,-43,98,972,1608,258398
53,-64,125,1043,1663,258398
50,-110,75,1048,1596,258376
35,-42,65,1081,1556,258322
-24,19,-62,1041,1637,258329
9,11,50,996,1643,258276
0,-63,135,1077,1577,258323
-24,-93,85,1079,1647,258344
-35,-68,236,967,1595,258321
-41,-84,202,929,1585,258353
-9,-75,168,1060,1616,258201
-50,-14,117,1039,1641,258206
-92,-8,4,1032,1710,258393
-26,-9,156,1009,1704,258356
-68,-12,168,1034,1661,258346
-92,-22,109,1042,1624,258406
-79,18,284,1064,1537,258261
-81,-2,132,1022,1637,258314
-50,30,97,1038,1659,258299
-53,66,60,1057,1674,258225
-62,61,-66,1000,1676,258316
-21,53,50,990,1650,258316
-60,6,45,951,1608,258324
-87,-37,70,1013,1584,258370
-82,-19,190,982,1617,258331
-116,-28,135,943,1647,258352
-77,-39,161,1032,1660,258313
-100,-41,143,1001,1678,258306
-67,-18,65,962,1610,258292
-30,34,149,1012,1653,258224
-53,-28,115,1076,1588,258315
-53,-71,174,1056,1534,258399
-1,-46,266,1103,1615,258353
1,-63,226,1074,1612,258346
29,-66,167,1060,1660,258337
20,-42,119,1008,1681,258361
64,-4,33,960,1667,258397
105,-22,42,1034,1659,258407
102,-78,33,1096,1611,258387
99,-93,101,1105,1560,258329
102,-82,143,1020,1593,258319
105,-81,160,1021,1611,258233
122,-65,135,982,1558,258224
80,-27,29,1008,1622,258274
132,-7,52,1076,1590,258369
123,-80,18,1068,1596,258330
100,-127,27,1012,1589,258208
137,-131,120,1018,1581,258279
122,-131,122,1049,1627,258287
122,-148,130,1129,1599,258297
159,-148,136,1047,1548,258196
145,-131,72,1064,1533,258322
156,-43,99,1042,1582,258316
169,-29,93,1061,1609,258268
135,-47,83,1070,1573,258281
142,-45,177,1005,1555,258346
137,-59,171,1088,1567,258465
130,-80,183,1108,1605,258482
129,-56,159,977,1678,258395
108,-16,103,982,1601,258364
100,4,100,1014,1637,258319
114,-21,66,986,1606,258360
71,-62,108,1055,1530,258388
84,-79,184,1020,1575,258321
54,-93,231,1058,1629,258420
39,-94,193,1080,1564,258407
47,-65,131,989,1558,258247
35,-27,36,996,1623,258331
75,-22,-5,1026,1617,258386
59,-61,-57,1013,1587,258305
17,-45,-15,1078,1539,258374
60,-55,88,1063,1645,258402
25,-143,75,1018,1605,258282
-13,-171,62,952,1605,258281
42,-108,75,1032,1647,258318
-34,-54,-31,1068,1650,258287
23,-42,15,1018,1588,258250
49,-74,50,1009,1591,258364
-28,-57,-10,1068,1588,258349
4,-6,115,1032,1589,258345
-9,-53,106,1043,1605,258355
44,-127,130,1020,1608,258236
89,-113,127,1026,1619,258245
80,-80,-13,1031,1576,258293
168,-34,-8,1026,1707,258361
109,-25,40,1090,1652,258372
82,-43,16,1043,1600,258353
169,-17,178,1105,1597,258350
83,-67,197,1029,1645,258371
99,-91,148,1007,1606,258254
127,-40,255,1006,1672,258313
93,-15,148,1042,1636,258402
127,25,140,1046,1654,258248
98,-38,69,1033,1619,258232
96,-51,59,1037,1590,258243
99,-35,120,1040,1570,258322
27,-56,151,1011,1614,258368
75,-39,204,999,1560,258377
54,21,209,1023,1630,258405
38,88,168,1128,1651,258349
74,80,171,1065,1611,258339
6,22,163,1045,1581,258371
26,-8,262,1024,1565,258314
32,37,272,1016,1579,258423
-47,59,222,1013,1643,258268
7,62,280,1004,1643,258370
-55,45,189,983,1626,258375
-83,92,126,1086,1660,258260
-55,60,90,1118,1625,258335
-67,28,51,1119,1627,258379
-104,30,91,1078,1639,258335
-99,40,117,1062,1624,258229
-139,-20,124,1118,1620,258232
-128,-10,154,1098,1554,258326
-147,24,97,1056,1557,258322
-161,65,45,1041,1553,258373
-166,86,67,1089,1562,258343
-193,66,4,1060,1632,258301
-177,54,142,1036,1558,258238
-216,25,166,1046,1571,258275
-225,-23,164,1051,1553,258426
-206,-33,252,1034,1565,258442
-235,-31,198,1042,1547,258342
-240,28,133,1039,1638,258340
-251,77,110,1052,1591,258275
-248,59,44,1106,1619,258309
-257,55,148,1046,1593,258304
-326,66,169,1031,1553,258360
-285,37,140,994,1548,258328
-305,41,225,1003,1631,258278
-292,41,83,977,1654,258356
-275,97,88,1032,1641,258358
-261,124,96,1027,1700,258319
-239,92,45,1018,1636,258290
-231,77,160,1054,1582,258253
-223,137,242,1010,1630,258390
-251,137,182,1024,1602,258406
-224,137,287,1030,1577,258256
-230,93,236,1093,1618,258336
-239,135,157,1042,1614,258323
-214,173,136,1028,1616,258345
-176,119,45,1056,1680,258358
-187,141,165,1067,1620,258310
-178,128,128,1030,1558,258311
-150,97,187,1057,1601,258323
-153,92,251,987,1569,258268
-174,132,213,1030,1656,258358
-162,177,205,1001,1639,258352
-139,168,195,1034,1633,258339
-152,191,163,1049,1652,258354
-152,171,194,957,1674,258333
-135,114,224,1047,1638,258282
-71,79,211,1045,1621,258321
-147,88,219,979,1624,258319
-113,48,121,1048,1616,258253
-135,48,183,1031,1577,258246
-123,70,11,991,1605,258421
-117,132,90,1063,1581,258434
-180,29,172,1042,1571,258321
-118,-85,242,960,1599,258344
-137,-13,272,956,1616,258275
-168,108,306,1047,1642,258389
-230,-50,106,1034,1677,258356
-15,-146,120,1020,1565,258310
-73,-16,158,1052,1591,258343
-214,25,-71,942,1613,258311
-170,-4,196,946,1619,258315
-77,-97,230,1052,1579,258360
-178,-67,91,1094,1534,258288
-51,8,200,1028,1636,258310
-213,-43,-2,1022,1665,258369
-76,-61,-25,946,1615,258279
-83,-15,166,1056,1685,258323
-101,12,-16,957,1613,258247
-39,19,152,997,1618,258373
29,-57,103,1062,1656,258378
33,34,86,1028,1581,258214
-16,134,250,1036,1658,258294
-34,6,-1,1008,1654,258344
36,8,181,1010,1640,258190
3,138,178,1079,1595,258327
36,85,-218,1023,1660,258386
76,96,134,1092,1602,258387
22,88,290,995,1628,258229
114,47,-2,1016,1592,258323
116,71,334,1074,1582,258281
146,110,122,1089,1586,258318
129,175,-144,947,1587,258206
108,223,40,1054,1535,258306
121,159,74,1015,1609,258345
137,142,148,1021,1613,258266
111,95,243,977,1628,258285
149,27,88,1048,1645,258306
165,68,202,1037,1652,258328
122,83,99,1055,1668,258347
192,106,139,1004,1760,258319
215,110,184,1012,1670,258400
120,94,-67,1024,1619,258360
123,86,36,1011,1607,258375
179,84,238,1070,1578,258405
158,51,28,1066,1571,258332
143,48,155,1088,1615,258219
188,26,199,971,1591,258345
147,-16,-27,1029,1558,258344
140,37,31,1034,1573,258314
185,19,70,1018,1660,258424
207,-7,142,1105,1538,258338
158,-18,111,1003,1615,258343
174,-70,168,994,1692,258276
137,-91,80,1033,1704,258315
115,-49,97,992,1556,258211
47,-42,46,989,1571,258426
117,-35,-33,978,1635,258309
145,-1,96,1030,1631,258337
28,-28,86,1049,1630,258298
76,-108,76,1010,1633,258301
100,-94,218,1054,1601,258377
41,-118,93,998,1617,258269
102,-158,25,1024,1562,258256
78,-81,135,1035,1614,258277
72,-69,5,1028,1656,258380
-13,-53,6,943,1608,258383
7,-112,174,1032,1612,258265
74,-167,176,1040,1623,258370
-1,-145,201,966,1640,258378
29,-137,180,945,1655,258388
79,-156,139,985,1560,258329
24,-187,81,998,1558,258351
56,-144,12,1003,1640,258405
41,-98,15,989,1618,258370
7,-100,62,900,1665,258179
16,-100,112,1003,1653,258249
9,-118,123,1105,1586,258278
48,-102,233,1064,1613,258254
-10,-135,117,1001,1605,258336
10,-89,73,1055,1575,258356
69,-43,37,1042,1602,258402
63,-42,42,1105,1575,258251
83,-10,152,1038,1513,258239
84,-48,145,1034,1578,258366
78,-76,138,1019,1595,258318
69,-20,187,1040,1610,258414
51,-17,109,1029,1628,258360
117,-15,55,1017,1607,258235
90,17,39,1083,1591,258213
76,50,-51,1056,1615,258376
98,-6,55,1029,1673,258415
137,-89,119,1084,1688,258513
87,-59,116,1028,1717,258404
95,4,181,1065,1617,258353
88,-15,132,1098,1679,258349
69,-29,75,1049,1575,258323
83,5,54,1084,1579,258227
83,3,11,972,1615,258320
83,-41,103,934,1633,258302
75,-51,131,1012,1564,258416
55,-40,108,1084,1545,258409
42,-45,205,1035,1590,258363
31,-131,167,1006,1588,258441
49,-120,154,1002,1536,258388
14,-40,173,1005,1606,258448
-32,-53,79,1080,1609,258274
-20,-89,200,1046,1607,258213
-9,-106,230,1039,1546,258281
-33,-140,190,975,1598,258273
-2,-148,257,1055,1608,258347
-15,-183,140,1063,1594,258394
-33,-190,29,1041,1544,258494
-43,-172,42,979,1549,258405
-52,-124,9,968,1561,258318
-58,-82,82,1108,1675,258289
-70,-119,44,982,1606,258204
-54,-139,68,966,1543,258274
-30,-147,143,1037,1531,258407
-8,-201,-22,1004,1571,258378
-11,-149,52,1048,1638,258271
-11,-121,-9,1078,1590,258276
0,-135,-18,1028,1620,258254
19,-178,131,993,1592,258358
28,-175,141,954,1585,258333
-23,-134,132,1049,1616,258350
2,-126,207,1029,1610,258391
-2,-189,127,1094,1565,258310
-26,-151,19,1046,1543,258179
8,-79,87,1024,1600,258340
-34,-100,16,950,1667,258338
-8,-97,136,900,1614,258395
17,-52,168,1003,1576,258290
13,-60,230,1016,1532,258304
23,-95,244,1031,1651,258292
61,-57,237,1088,1580,258298
31,25,137,1116,1548,258270
48,69,125,1047,1628,258297
53,67,157,1071,1614,258285
71,58,159,1050,1638,258313
82,60,206,1053,1632,258370
59,81,214,1050,1659,258407
63,83,242,1028,1651,258343
80,56,127,1041,1611,258383
73,85,100,1053,1593,258267
74,148,74,1005,1522,258291
73,154,-45,1075,1655,258389
54,146,51,1115,1662,258311
49,126,116,1110,1671,258348
23,122,114,1015,1580,258287
17,143,136,1021,1604,258313
8,93,42,1067,1663,258448
-12,109,-21,1045,1595,258314
9,163,45,1026,1533,258250
-48,180,-8,1059,1574,258358
-32,146,62,946,1576,258344
-46,137,164,995,1572,258433
-86,136,110,1045,1528,258341
-76,111,192,1008,1588,258301
-95,54,123,1076,1610,258287
-118,77,92,1049,1602,258292
-127,84,103,1071,1662,258312
-146,8,118,1074,1583,258218
-152,-20,236,980,1565,258281
-181,-2,261,956,1566,258341
-163,0,279,970,1587,258378
-180,-38,310,1052,1577,258295
-154,-49,179,1034,1601,258283
-196,4,164,1018,1584,258215
-203,54,181,1048,1595,258200
-248,31,61,1029,1694,258296
-244,39,184,1060,1611,258300
-240,-12,190,1025,1659,258385
-257,-28,234,1034,1706,258344
-214,-34,279,990,1583,258361
-218,-73,158,995,1532,258364
-259,-48,128,966,1594,258345
-230,22,116,930,1613,258376
-212,-6,62,1006,1603,258324
-245,24,210,960,1605,258343
-252,22,177,1063,1626,258363
-223,-6,207,910,1652,258315
-217,-63,269,967,1581,258288
-168,-56,111,1004,1614,258362
-190,37,116,1016,1615,258284
-135,27,93,989,1608,258275
-156,6,60,1069,1614,258327
-190,65,114,1065,1621,258372
-186,83,154,1061,1670,258422
-203,35,226,1012,1579,258303
-202,26,262,1004,1631,258239
-182,99,149,998,1674,258388
-200,116,118,1011,1599,258340
-182,96,92,1050,1651,258357
-157,137,30,1004,1606,258253
-182,181,75,1041,1677,258306
-185,100,109,1020,1625,258235
-152,67,161,990,1552,258187
-131,104,164,1061,1603,258335
-167,94,101,1118,1632,258384
-162,69,147,1026,1651,258292
-177,115,118,1027,1574,258279
-174,146,89,1019,1599,258383
-168,148,171,1007,1634,258383
-194,108,214,1026,1640,258372
-183,130,237,985,1628,258254
-161,97,235,964,1636,258306
-149,41,142,1014,1624,258384
-156,66,135,1001,1635,258225
-116,90,84,993,1641,258252
-134,93,50,981,1680,258293
-132,105,95,1020,1646,258287
-133,109,144,965,1572,258288
-123,69,209,985,1615,258254
-70,35,261,1050,1631,258268
-68,36,193,1044,1561,258271
-81,57,206,996,1579,258379
-24,44,180,982,1613,258430
-40,62,187,1057,1568,258376
-67,111,254,1010,1602,258384
-72,71,256,992,1653,258412
-59,16,267,1039,1619,258276
-73,-7,220,1054,1617,258278
-30,-40,94,992,1601,258341
-12,-51,93,1031,1622,258285
19,-53,-11,1057,1608,258261
7,-65,-29,1053,1595,258245
-14,-85,6,949,1665,258286
30,-76,34,970,1648,258235
58,-63,56,1084,1615,258300
72,-67,84,1085,1629,258289
81,-104,7,963,1608,258294
113,-100,4,973,1608,258316
155,-68,10,996,1614,258301
143,-49,-64,1032,1614,258312
130,-16,71,1000,1624,258254
153,-30,114,1044,1612,258300
175,-51,172,1045,1536,258346
183,-38,212,989,1592,258286
156,-26,103,1042,1617,258469
204,7,112,1035,1673,258435
178,23,118,1083,1681,258449
162,38,-9,1032,1575,258289
153,112,89,1028,1624,258315
150,104,170,981,1604,258386
149,72,124,988,1605,258503
175,85,228,1034,1634,258250
174,65,119,1023,1601,258282
219,94,104,1058,1558,258373
217,132,93,994,1579,258295
216,176,-27,953,1604,258385
178,174,47,968,1659,258350
162,130,91,1013,1660,258406
177,97,93,986,1672,258307
166,88,123,1005,1610,258292
180,58,87,1030,1637,258295
195,65,50,1004,1681,258336
178,74,63,1006,1614,258268
176,75,2,1021,1600,258308
144,54,87,1036,1531,258329
134,57,143,1023,1623,258252
143,37,141,959,1634,258324
124,11,163,1067,1615,258333
94,6,141,1045,1614,258280
144,34,35,1001,1632,258373
151,70,42,1089,1655,258414
122,87,19,1084,1621,258346
108,69,27,1091,1607,258290
149,22,76,1017,1589,258376
123,-29,90,953,1615,258317
129,-39,40,986,1600,258300
131,-57,51,990,1574,258229
108,-76,32,1077,1579,258245
120,-60,-47,981,1616,258281
94,-61,-9,1101,1604,258253
77,-111,91,1112,1684,258322
89,-135,126,967,1620,258329
79,-138,204,1003,1589,258322
89,-185,210,1053,1634,258418
61,-222,154,1060,1655,258380
101,-147,207,1093,1597,258306
102,-105,130,1070,1578,258254
87,-109,72,1003,1521,258286
53,-89,243,945,1572,258301
79,-108,205,1062,1600,258316
58,-120,228,1002,1683,258297
37,-138,269,1053,1560,258415
52,-128,133,1011,1622,258348
46,-71,128,956,1586,258251
53,-73,51,956,1574,258304
32,-54,1,909,1640,258373
-20,35,94,986,1587,258312
-18,42,102,1032,1588,258338
-24,11,154,1054,1593,258332
-33,0,227,1067,1674,258385
-4,14,141,1001,1636,258415
-36,0,140,1009,1623,258284
0,-4,126,998,1616,258317
-3,28,85,1085,1586,258394
-37,33,147,1095,1610,258390
-9,18,181,1048,1590,258388
-10,64,180,1056,1609,258278
-51,98,184,1003,1525,258268
-56,34,136,1006,1611,258288
-41,32,130,1008,1576,258296
-34,73,23,962,1561,258320
-72,65,9,996,1627,258344
-55,6,90,1059,1647,258398
-55,-50,72,983,1594,258477
-95,-58,103,984,1601,258277
-88,-99,113,1107,1569,258328
-87,-107,75,1028,1564,258374
-114,-50,47,964,1584,258357
-104,-11,3,995,1577,258325
-125,-45,3,1026,1614,258322
-147,-73,109,1070,1623,258292
-141,-103,108,1008,1659,258245
-126,-112,150,1081,1622,258455
-130,-124,196,1054,1603,258255
-116,-116,104,1019,1583,258452
-101,-75,108,1042,1643,258386
-62,-37,86,1101,1702,258344
-96,-18,85,1091,1568,258411
-86,-22,158,1078,1625,258338
-97,-90,188,1055,1687,258360
-82,-111,218,1078,1664,258317
-37,-93,218,1078,1622,258328
-60,-103,119,1012,1643,258370
-26,-108,92,1047,1619,258311
-6,-87,38,1012,1545,258308
-43,-77,31,1027,1586,258418
-28,-105,70,1033,1668,258396
-5,-147,131,1012,1583,258374
-50,-129,169,1056,1654,258437
-18,-118,203,1034,1590,258339
-23,-171,147,1027,1617,258300
5,-141,68,1056,1590,258299
36,-37,59,1003,1628,258261
10,-27,10,1056,1617,258302
59,-44,158,1067,1682,258234
51,-29,183,1021,1644,258371
18,-10,161,961,1584,258357
30,-35,223,1073,1572,258384
43,-52,240,1037,1605,258335
47,8,130,968,1609,258364
63,66,80,1009,1589,258369
48,24,70,1030,1674,258297
42,-4,115,999,1628,258330
63,-28,174,1041,1600,258435
27,-35,164,1095,1570,258358
48,-26,213,1072,1569,258354
38,-29,148,1010,1686,258304
14,18,105,1003,1595,258343
31,62,83,1002,1615,258279
2,28,76,1022,1555,258281
-11,-7,164,1056,1534,258323
-21,-14,162,1023,1655,258333
1,1,167,1081,1592,258412
-22,0,240,1007,1647,258330
-57,-1,176,998,1644,258277
-69,11,85,962,1639,258263
-28,9,90,990,1604,258382
-47,26,77,956,1630,258380
-67,40,59,1026,1609,258255
-60,8,120,1030,1616,258305
-77,-32,158,1035,1593,258282
-88,-8,170,1060,1561,258330
-103,7,96,1043,1657,258366
-70,0,83,1053,1625,258291
-72,34,37,1034,1597,258284
-84,63,20,1013,1616,258384
-76,22,48,1030,1604,258240
-64,-48,101,1054,1593,258318
-50,-30,117,1076,1541,258308
-69,39,141,1082,1569,258233
-102,49,90,1008,1637,258211
-87,73,67,1042,1637,258274
-112,106,97,1090,1629,258273
-131,119,87,1003,1552,258342
-98,78,194,1079,1672,258420
-142,23,238,1077,1646,258366
-126,-9,239,1035,1621,258240
-148,-27,256,1100,1564,258315
-127,-73,206,985,1557,258269
-115,-45,179,1049,1577,258319
-120,-23,111,1066,1609,258267
-121,-28,88,1037,1592,258341
-121,-46,159,1020,1630,258361
-119,-91,150,1013,1603,258313
-107,-100,218,1068,1568,258366
-120,-87,270,994,1640,258312
-92,-91,112,1098,1615,258260
-86,-39,121,1046,1622,258303
-73,7,67,982,1602,258377
-72,35,2,1015,1651,258343
-89,48,163,1042,1661,258317
-93,37,136,1013,1610,258407
-106,21,175,1048,1594,258307
-152,20,267,1030,1554,258346
-142,1,163,1019,1582,258260
-171,62,157,1060,1534,258270
-173,140,114,998,1605,258360
-136,132,114,1003,1652,258313
-204,130,165,1046,1626,258269
-104,79,213,942,1625,258285
-181,81,243,1034,1600,258341
-201,87,275,1064,1617,258361
-174,60,196,1002,1596,258368
-180,61,141,1077,1545,258360
-169,105,164,1004,1602,258328
-184,96,67,1047,1625,258325
-140,32,157,1037,1608,258282
-137,23,248,1042,1568,258272
-138,48,177,1013,1537,258297
-160,78,224,976,1575,258287
-138,59,188,987,1665,258316
-184,109,76,1069,1624,258300
-174,152,25,1046,1618,258313
-155,120,38,1054,1683,258295
-145,74,62,1044,1607,258356
-132,62,108,1086,1551,258405
-142,54,111,983,1610,258408
-119,25,191,1034,1617,258393
-109,5,80,1110,1651,258364
-111,67,70,1008,1653,258329
-104,133,50,1040,1634,258375
-90,112,4,1016,1656,258436
-107,99,134,1027,1591,258408
-85,85,117,1028,1583,258398
-59,49,161,1057,1598,258312
-79,-30,205,1061,1553,258163
-80,-44,77,1007,1595,258230
-55,43,19,1058,1573,258251
-18,76,-5,1050,1595,258310
15,-2,-9,1052,1583,258303
15,-12,87,1103,1526,258274
69,-22,94,1021,1602,258405
47,-43,165,1053,1613,258366
33,-92,239,1062,1672,258377
74,-138,145,991,1697,258235
59,-75,195,1055,1573,258315
75,-32,150,1019,1601,258231
86,-38,72,997,1626,258256
95,-49,208,1039,1623,258285
118,-69,243,1034,1634,258337
73,-47,250,1032,1622,258343
95,-39,223,991,1666,258319
93,-15,178,1028,1665,258321
52,35,108,1008,1639,258355
73,92,70,950,1585,258288
77,63,45,1027,1572,258294
51,66,101,1054,1562,258354
87,97,103,952,1672,258240
107,58,111,996,1641,258316
134,7,186,1058,1629,258358
126,5,27,1040,1590,258291
127,96,6,1004,1631,258325
149,112,32,1031,1598,258348
150,45,-43,1003,1588,258415
214,45,47,968,1589,258351
196,44,92,978,1662,258338
213,2,85,996,1547,258386
246,-46,189,972,1620,258398
220,-69,65,1023,1634,258424
207,-17,-7,993,1644,258324
229,36,58,1075,1660,258251
191,4,-45,1023,1588,258309
202,41,16,1003,1583,258335
187,39,68,1037,1567,258375
182,-30,92,1095,1576,258270
168,-52,176,1124,1627,258381
171,7,77,1023,1604,258385
148,92,78,1016,1579,258327
156,101,80,1100,1608,258345
175,54,30,1063,1623,258304
166,65,129,1032,1637,258278
189,43,109,1024,1667,258323
195,32,201,1068,1566,258404
183,-5,140,1098,1569,258344
191,-27,36,1078,1571,258264
131,18,73,936,1576,258299
155,39,11,986,1602,258349
162,-1,8,987,1599,258337
171,-14,118,988,1573,258300
182,-23,148,1058,1633,258279
185,-56,195,1017,1610,258284
194,-111,247,1049,1553,258226
180,-71,165,1029,1541,258234
135,41,88,965,1578,258252
156,24,44,1018,1671,258313
128,10,28,1032,1577,258349
134,44,61,1039,1617,258325
129,49,112,1017,1629,258298
125,-54,184,1059,1687,258194
126,-118,197,1015,1639,258328
104,-74,155,1013,1592,258324
72,-22,52,1065,1604,258406
86,1,32,1022,1574,258379
90,1,22,987,1591,258350
59,19,81,1041,1610,258358
83,26,139,1057,1655,258395
47,-46,224,1117,1675,258351
72,-90,218,1154,1645,258277
44,-83,177,1137,1674,258359
69,-64,80,1020,1615,258224
70,-46,50,1063,1603,258170
46,-44,7,1047,1592,258230
45,-29,37,986,1630,258299
57,-28,67,1022,1612,258247
45,-55,155,1033,1556,258358
17,-101,158,1004,1635,258354
-4,-132,62,953,1596,258356
-41,-60,96,1078,1635,258241
-53,-49,35,1011,1668,258351
-51,-88,-45,1025,1620,258283
-54,-58,85,1063,1642,258357
-50,-55,66,1037,1580,258314
-20,-54,110,1059,1597,258280
-38,-86,219,1101,1624,258480
-90,-91,101,1080,1640,258418
-104,-4,119,1062,1650,258368
-103,27,72,1088,1633,258298
-110,-9,43,1055,1584,258275
-147,6,143,1068,1541,258363
-128,26,154,984,1642,258417
-119,-17,229,998,1616,258312
-128,-43,257,1038,1545,258424
-121,-35,135,1059,1511,258292
-134,53,179,1056,1600,258319
-108,39,97,1004,1636,258328
-124,42,89,1033,1654,258349
-137,103,199,1020,1658,258307
-125,58,188,1067,1616,258354
-120,-21,254,968,1546,258330
-129,-22,298,987,1650,258295
-167,-15,157,1030,1646,258340
-136,35,114,1063,1623,258335
-165,59,103,1027,1559,258399
-210,45,9,1005,1545,258354
-211,66,73,981,1658,258292
-186,50,148,996,1642,258247
-175,-4,194,1012,1647,258357
-175,-66,234,1040,1614,258376
-178,-85,156,1044,1645,258308
-163,-51,180,1004,1663,258318
-178,-37,22,1062,1734,258415
-162,4,32,1068,1615,258320
-143,-21,96,1016,1568,258242
-101,-5,104,963,1606,258376
-97,-33,138,982,1733,258386
-98,-75,213,1078,1699,258313
-87,-136,115,1060,1666,258355
-96,-102,141,1034,1556,258276
-108,-50,21,1083,1604,258294
-104,-66,30,1076,1672,258307
-135,-73,164,1100,1654,258219
-88,-49,146,1084,1610,258258
-69,-34,269,1107,1684,258338
-123,-83,246,1033,1640,258381
-67,-126,251,1012,1572,258358
-95,-46,232,1036,1640,258411
-91,-19,86,958,1615,258275
-77,-12,96,978,1674,258289
-154,-9,140,1059,1615,258303
-78,-33,118,1076,1618,258314
-76,-20,222,1104,1624,258318
-114,-63,248,1048,1671,258367
-101,-72,162,1013,1593,258292
-91,-31,207,1061,1560,258352
-96,-25,116,1067,1599,258302
-132,9,125,1065,1645,258257
-166,22,144,1050,1578,258388
-118,13,175,1054,1565,258415
-130,-27,275,997,1633,258353
-129,-42,242,1041,1676,258339
-153,-42,253,1035,1627,258247
-137,-16,247,1033,1668,258353
-156,57,157,1051,1583,258356
-179,68,79,982,1610,258339
-150,36,102,967,1625,258276
-116,13,163,949,1536,258363
-120,24,169,1024,1503,258347
-93,32,161,988,1592,258312
-141,-8,124,991,1521,258211
-112,7,110,955,1590,258392
-141,63,9,1079,1541,258300
-160,62,-44,1046,1564,258241
-152,54,60,983,1562,258420
-127,-2,85,1033,1583,258426
-90,-33,127,1028,1622,258232
-117,-88,131,991,1593,258194
-71,-61,169,998,1547,258336
-79,-29,70,966,1530,258366
-84,15,46,1013,1597,258259
-93,17,34,1048,1580,258292
-123,18,46,1038,1564,258396
-72,-8,84,1005,1617,258338
-36,-20,136,1029,1642,258318
-49,-38,150,1078,1651,258298
-14,-51,178,1073,1610,258396
-35,-44,99,1049,1634,258406
6,41,57,1028,1565,258399
-28,63,83,1052,1644,258414
-35,50,102,992,1631,258346
-28,55,178,970,1664,258345
-15,24,185,1052,1626,258425
-27,-14,208,976,1623,258299
-26,-27,212,1015,1628,258330
-11,-3,152,1084,1642,258455
-50,8,106,1086,1669,258331
-50,55,129,979,1583,258335
-31,96,121,1001,1568,258320
6,49,166,984,1576,258346
-1,25,231,1000,1580,258399
-7,-29,222,963,1591,258297
37,-50,179,1032,1582,258331
31,-43,174,1029,1641,258264
8,3,92,1008,1613,258272
19,60,67,1006,1675,258293
39,52,149,1045,1580,258315
27,28,116,1055,1566,258365
74,54,176,1005,1653,258307
