Vx,Vy,Vz,Ax,Ay,Az
-36,-38,-80,4753,986,254205
-67,-24,-64,4737,1017,254254
-87,-27,43,4738,950,254138
-108,28,112,4766,1050,254179
-122,82,174,4687,1086,254141
-141,70,101,4682,1020,254182
-122,91,-5,4749,1053,254134
-112,76,-50,4757,1043,254306
-140,38,-66,4732,998,254234
-145,28,-78,4695,965,254195
-125,12,4,4684,935,254164
-172,25,66,4721,970,254224
-176,55,126,4716,1036,254215
-170,54,75,4771,1048,254195
-160,58,-25,4763,1036,254280
-124,12,-70,4710,1024,254154
-96,-35,-20,4730,1030,254302
-136,-44,-57,4704,1018,254227
-111,-15,5,4651,1057,254145
-140,-9,85,4731,1040,254148
-124,19,108,4796,1021,254147
-97,42,57,4773,1022,254283
-82,18,-18,4756,1036,254294
-21,-29,-31,4698,956,254170
-13,-61,-21,4714,988,254127
-21,-63,-18,4765,1031,254187
18,-65,26,4708,1036,254162
-3,-38,116,4725,986,254180
0,17,127,4823,1025,254201
26,56,44,4778,1044,254191
36,22,-62,4769,1055,254198
63,13,-118,4743,1019,254206
70,3,-148,4679,1020,254268
103,2,-140,4682,1052,254196
93,44,-155,4710,1018,254184
94,68,-29,4691,1005,254169
68,100,19,4708,1014,254172
76,159,-29,4662,1012,254246
110,116,-111,4720,1070,254211
147,80,-154,4706,1101,254119
137,62,-143,4766,1091,254208
147,45,-91,4698,1084,254149
135,53,-29,4724,983,254160
117,61,45,4648,1021,254182
84,113,83,4711,1028,254166
91,172,16,4691,1082,254226
83,133,-56,4728,1051,254202
73,74,-92,4741,1001,254154
92,64,-116,4683,1005,254198
57,20,-79,4706,1084,254230
35,-27,19,4719,1072,254193
54,3,175,4757,1062,254331
-32,50,192,4703,1048,254297
-23,88,104,4719,1070,254214
17,55,-15,4722,1068,254170
-64,31,-88,4722,1040,254180
-49,-1,-121,4725,1060,254318
-55,-20,-105,4663,1072,254232
-88,-23,-39,4694,980,254198
-116,-28,123,4678,1085,254204
-172,-6,151,4743,993,254261
-147,31,125,4748,1009,254228
-154,13,52,4671,1051,254176
-139,-28,7,4686,1022,254179
-128,-55,-65,4707,1020,254239
-110,-68,-75,4658,988,254312
-131,-96,30,4692,1062,254252
-164,-95,129,4646,1046,254213
-159,-47,130,4699,1021,254265
-128,-25,81,4720,1041,254274
-136,-51,9,4718,1049,254305
-90,-47,-64,4701,1035,254223
-68,-73,-115,4698,1043,254238
-49,-109,-97,4783,1050,254194
-40,-108,6,4715,989,254217
-83,-68,74,4715,1020,254295
-68,-16,90,4757,1023,254307
-47,8,68,4753,1028,254161
-30,31,-15,4739,1038,254156
-24,28,-124,4695,1016,254194
0,5,-171,4739,1038,254158
-1,23,-176,4722,1027,254108
-17,38,-96,4732,983,254125
-6,61,14,4690,981,254198
-22,105,31,4662,997,254204
24,148,52,4665,1106,254330
8,128,44,4643,1063,254236
20,106,-13,4702,1063,254217
52,90,-98,4704,1040,254163
56,52,-67,4630,1020,254100
36,28,30,4644,1012,254201
33,48,130,4690,1068,254129
-1,104,85,4694,1032,254148
24,124,42,4765,1062,254269
59,83,56,4712,1087,254268
33,89,-62,4642,1065,254144
92,75,-114,4608,1035,254233
70,-23,-34,4696,1016,254162
34,-20,105,4762,1017,254260
14,49,130,4708,1061,254246
-10,79,120,4715,1088,254106
3,94,69,4694,1005,254085
12,105,10,4713,1036,254230
29,76,-154,4677,1094,254208
0,69,-225,4698,1049,254197
12,24,-169,4765,1030,254097
-4,5,-13,4696,1016,254161
-49,15,108,4726,1054,254248
-73,109,88,4742,1047,254160
-79,129,13,4694,1024,254197
-71,80,2,4713,1052,254143
-79,74,-131,4646,983,254145
-47,57,-185,4672,1019,254252
-69,-53,-82,4748,998,254214
-91,-69,44,4743,1006,254152
-125,-65,97,4759,1104,254171
-117,-24,106,4694,1018,254264
-115,16,92,4745,984,254137
-109,-3,67,4779,1014,254204
-101,-25,-86,4657,1034,254178
-41,-30,-149,4744,993,254297
-64,-64,-77,4771,993,254274
-76,-80,91,4719,1069,254112
-95,-55,106,4716,1020,254124
-110,38,37,4775,1055,254203
-79,62,72,4724,1034,254287
-84,85,69,4700,987,254160
-74,101,-116,4752,1071,254208
1,57,-233,4756,1089,254192
10,-6,-202,4735,1011,254219
14,5,-46,4750,957,254290
5,12,32,4651,1009,254244
26,37,19,4721,1048,254166
65,88,-14,4778,975,254208
70,106,-17,4776,1077,254184
88,86,-110,4675,1064,254173
143,72,-210,4654,1015,254128
158,21,-144,4727,1038,254157
111,17,21,4742,1021,254259
82,41,93,4703,992,254216
78,73,86,4718,948,254181
80,100,75,4662,1012,254206
82,106,62,4691,977,254199
60,121,-78,4700,1036,254130
112,92,-146,4651,1094,254195
94,44,-79,4726,992,254255
56,69,56,4686,977,254232
20,66,96,4676,1020,254249
6,85,84,4719,1036,254215
-10,89,89,4703,1076,254260
-39,109,94,4708,1057,254269
-70,102,-37,4690,989,254245
-5,43,-83,4706,1051,254234
-40,-36,31,4767,1094,254140
-88,-25,192,4830,973,254233
-96,9,251,4657,981,254219
-178,24,230,4673,1025,254254
-142,56,205,4711,1005,254285
-170,94,141,4681,1004,254164
-169,62,9,4643,1043,254189
-134,-17,-60,4679,1035,254267
-135,-48,-50,4685,944,254240
-196,-54,20,4775,938,254188
-187,-37,109,4727,1029,254230
-210,0,109,4687,1009,254250
-215,21,108,4705,992,254259
-219,38,19,4694,1022,254261
-184,83,-144,4765,999,254163
-151,45,-202,4761,1012,254199
-162,-33,-96,4768,965,254159
-173,-29,16,4735,1048,254250
-174,33,46,4683,1037,254183
-176,57,56,4759,984,254209
-168,46,44,4725,982,254284
-186,85,-63,4666,1058,254237
-168,113,-214,4723,1019,254200
-116,58,-227,4731,1107,254131
-112,16,-171,4735,1056,254130
-134,48,-125,4681,998,254200
-121,73,-14,4737,1053,254247
-116,70,96,4830,1054,254215
-115,120,82,4729,1054,254176
-92,139,28,4731,1070,254249
-46,125,-91,4699,1052,254280
-23,109,-137,4664,1059,254206
6,54,-27,4710,999,254233
2,16,53,4690,954,254259
8,46,124,4677,941,254169
7,82,198,4731,930,254263
-11,87,176,4748,976,254254
12,100,70,4748,988,254262
83,91,-6,4699,1006,254286
105,71,-36,4727,1059,254144
124,12,43,4792,1024,254071
95,-28,103,4771,1016,254101
107,29,151,4722,972,254149
98,50,181,4724,1066,254240
100,79,157,4790,995,254188
104,113,8,4734,998,254189
149,117,-123,4780,1058,254152
149,51,-132,4776,1051,254313
139,39,-51,4695,1068,254240
93,14,-6,4721,1054,254244
79,16,54,4752,1053,254202
59,33,77,4741,1084,254220
77,90,93,4619,1052,254296
31,120,-133,4674,1027,254249
57,125,-262,4653,1054,254185
77,47,-278,4756,990,254158
84,12,-197,4753,1015,254164
72,-13,-148,4687,977,254210
83,-28,-77,4674,987,254191
12,42,-39,4707,975,254084
1,121,35,4665,1011,254201
-27,138,-58,4698,1145,254201
1,125,-252,4674,1094,254190
56,73,-210,4660,1038,254203
-3,-25,-111,4780,994,254175
-33,-38,-60,4781,1050,254173
-39,-73,59,4708,1062,254261
-71,-82,220,4674,973,254235
-71,-29,245,4710,990,254310
-53,10,71,4717,1027,254215
-39,28,-89,4747,985,254287
3,4,-26,4821,1013,254248
0,-20,74,4824,991,254200
-24,6,59,4782,1067,254108
1,-7,111,4766,993,254131
-4,-3,241,4736,942,254155
-42,74,239,4782,1049,254245
-44,94,63,4677,1040,254239
43,24,-41,4692,1019,254253
-9,5,-68,4690,1020,254184
8,-5,-45,4743,985,254262
-4,-28,-50,4695,982,254165
6,-34,-5,4651,1028,254201
-29,-18,62,4725,1000,254201
-21,9,63,4748,987,254272
-6,63,-112,4701,1104,254241
55,60,-198,4668,1110,254175
64,26,-122,4807,1074,254141
45,10,-105,4818,1040,254169
53,35,-129,4687,1005,254223
44,7,-24,4736,1043,254175
3,-2,98,4668,1097,254150
-7,21,72,4726,985,254174
5,39,-81,4736,1008,254098
-22,51,-159,4735,1009,254216
28,34,-115,4716,1041,254261
-20,-6,-114,4677,1058,254217
-27,16,-102,4751,1093,254139
-40,25,-47,4708,1078,254168
-74,10,70,4649,1119,254146
-77,41,70,4696,1102,254260
-65,103,-88,4712,1011,254254
-46,88,-164,4661,1057,254179
17,54,-94,4719,1052,254064
-35,46,-60,4739,1044,254177
4,5,32,4767,1030,254135
-32,-33,160,4753,997,254257
-97,-18,200,4663,1007,254193
-94,-25,213,4703,1085,254214
-120,-27,88,4719,1058,254170
-104,5,-56,4693,924,254128
-74,-35,-20,4722,1004,254251
-101,-83,31,4762,1072,254231
-76,-42,26,4753,985,254218
-94,-93,188,4748,1055,254258
-119,-91,290,4739,984,254232
-132,-2,192,4707,992,254199
-94,-27,61,4672,1032,254187
-84,-35,-73,4750,1059,254078
-42,-20,-55,4750,982,254153
-92,-60,-50,4730,1012,254212
-66,-71,-16,4666,1007,254313
-68,-82,79,4677,999,254246
-98,-67,187,4693,958,254207
-146,-30,78,4727,1090,254224
-130,-23,-76,4681,1008,254279
-132,-27,-170,4711,1016,254187
-88,-29,-155,4737,974,254327
-154,-53,-169,4715,992,254263
-90,-73,-135,4725,1048,254191
-161,-98,8,4706,982,254200
-177,-95,137,4694,957,254121
-157,-26,83,4665,1013,254124
-165,-6,-19,4681,1080,254244
-147,0,-109,4683,1087,254238
-136,36,-96,4735,1041,254246
-130,21,-95,4688,953,254279
-84,9,-40,4706,1044,254282
-100,-16,70,4719,982,254233
-112,24,160,4618,989,254284
-123,46,132,4667,1036,254272
-100,62,46,4727,1060,254250
-95,69,-40,4765,1007,254186
-65,59,-41,4773,1018,254144
-77,70,-80,4715,1049,254213
-64,90,-17,4762,1116,254203
-48,51,139,4824,963,254084
-77,52,221,4729,1012,254239
-75,104,138,4711,1083,254151
-54,137,53,4726,1072,254227
-18,101,8,4732,1029,254252
-2,98,-17,4660,1076,254230
-15,119,-55,4707,1023,254333
13,97,46,4772,1055,254279
4,60,195,4721,986,254139
-27,81,232,4641,984,254193
-12,104,162,4666,1047,254182
-9,120,-7,4733,993,254258
7,121,-79,4751,1043,254199
20,101,-99,4660,1027,254061
43,78,-151,4716,1052,254169
63,29,-82,4649,992,254214
32,-14,47,4719,1016,254177
3,4,59,4701,1043,254143
15,6,13,4716,1103,254190
17,12,-93,4719,1011,254193
47,28,-193,4749,1037,254229
62,-11,-258,4772,1028,254151
75,-48,-257,4801,1069,254205
76,-38,-190,4784,1115,254214
65,-67,27,4756,1110,254252
40,-87,88,4685,1059,254276
53,-13,-24,4652,1044,254208
64,3,-63,4738,1015,254249
72,4,-47,4726,923,254167
67,48,-167,4682,1020,254161
96,45,-223,4666,1045,254037
117,3,-100,4665,1058,254134
97,-22,110,4708,1077,254186
69,-5,184,4692,948,254250
67,5,88,4694,945,254253
91,-3,11,4737,988,254282
75,25,-49,4623,1082,254186
85,52,-138,4641,1054,254197
113,24,-150,4694,1042,254183
104,11,-60,4731,981,254211
90,53,106,4705,997,254262
55,54,176,4626,1016,254281
63,34,125,4767,995,254270
65,39,53,4820,995,254250
43,66,10,4682,983,254234
29,71,-88,4681,1055,254201
46,76,-125,4709,1022,254117
21,43,-41,4763,918,254136
8,45,122,4739,1045,254223
-25,69,123,4740,999,254211
-8,106,67,4702,1061,254177
-18,100,24,4672,1083,254121
-1,128,36,4752,981,254241
5,158,-60,4747,1015,254244
-11,163,-149,4712,1048,254127
-10,135,-60,4694,1003,254209
-17,130,105,4678,955,254184
-88,168,131,4706,992,254164
-51,174,94,4727,1026,254142
-15,163,19,4745,1063,254192
-12,163,-111,4708,1081,254160
-70,195,-197,4747,1046,254065
-5,154,-189,4750,987,254193
-44,116,-113,4694,1067,254222
-73,90,22,4663,1089,254172
-117,74,40,4753,1047,254275
-113,67,17,4731,1007,254191
-103,53,5,4675,1027,254142
-123,34,-77,4708,1036,254078
-70,56,-175,4667,1062,254127
-55,60,-185,4719,997,254065
-80,6,-66,4735,1055,254009
-91,-15,108,4745,1016,254105
-118,8,121,4712,1025,254195
-132,26,77,4749,1029,254124
-123,-7,60,4637,1014,254081
-128,-19,-25,4641,1000,254212
-139,-8,-127,4678,1045,254271
-105,-14,-98,4693,1049,254208
-104,-26,18,4737,922,254185
-132,-29,119,4721,965,254222
-116,-22,151,4676,1100,254276
-114,0,101,4624,1084,254178
-123,28,42,4717,1036,254155
-132,37,-17,4698,994,254232
-125,59,-118,4703,1032,254158
-99,70,-131,4750,1050,254264
-130,30,24,4744,1042,254357
-146,13,168,4676,1036,254218
-157,49,174,4670,1023,254234
-131,15,167,4689,1001,254236
-136,13,132,4654,1044,254157
-132,45,9,4717,1059,254255
-91,47,-28,4635,1048,254263
-88,26,-80,4709,1057,254193
-61,26,39,4741,1053,254228
-92,8,160,4715,1091,254149
-100,32,224,4719,1098,254055
-92,34,159,4699,1076,254276
-50,32,150,4665,1018,254159
-95,56,44,4720,953,254121
-59,116,-86,4652,922,254263
-37,86,-73,4595,1061,254303
-65,83,29,4699,1002,254202
-58,126,106,4741,980,254183
-67,131,99,4704,1022,254190
-50,97,125,4681,1076,254233
-61,120,49,4683,1130,254238
-45,133,-13,4744,1056,254191
-44,119,-138,4689,1047,254266
7,151,-140,4696,986,254224
-24,122,-5,4730,1015,254336
-25,146,96,4734,1003,254261
-31,160,49,4737,989,254234
20,124,52,4738,1091,254197
-4,96,-16,4706,1039,254190
8,110,-140,4651,992,254175
56,84,-218,4680,1051,254237
44,14,-199,4662,1108,254226
62,-5,-34,4644,1119,254110
45,9,50,4670,1015,254203
39,12,57,4659,1017,254221
51,-33,66,4696,1024,254218
55,-31,17,4740,937,254236
27,3,-190,4669,1053,254190
86,-24,-246,4717,1038,254135
62,-61,-230,4760,1007,254160
63,-57,-125,4729,1093,254225
64,-69,-30,4717,1053,254226
39,-56,-6,4760,1068,254159
62,-59,34,4762,1063,254153
17,-100,55,4795,1106,254178
29,-58,-71,4792,1048,254165
60,-27,-202,4690,1061,254178
23,-103,-146,4728,955,254169
24,-103,-5,4700,1033,254115
12,-49,63,4704,1076,254185
-31,-47,83,4825,1060,254255
8,-52,88,4698,1041,254361
-10,-49,92,4711,1062,254296
-23,-46,-16,4667,970,254199
31,-33,-87,4693,1043,254206
14,-42,-84,4657,1114,254063
8,-18,24,4634,1048,254208
-8,25,86,4707,1010,254153
10,49,142,4715,1079,254228
11,19,178,4787,1090,254220
8,3,135,4752,1021,254281
2,36,28,4683,1084,254295
13,36,-91,4702,1086,254196
29,30,-40,4735,1041,254127
15,18,-9,4720,1006,254187
-13,68,12,4712,1029,254131
9,92,72,4771,978,254193
13,108,97,4737,1094,254297
-6,75,28,4723,1035,254099
53,59,-83,4714,965,254169
72,58,-187,4756,1021,254141
53,24,-185,4717,1007,254252
71,18,-118,4731,1077,254214
60,64,-105,4654,1002,254230
44,75,-78,4730,983,254205
46,76,-43,4713,1064,254220
43,69,-67,4700,1022,254186
43,90,-196,4674,1011,254075
131,58,-201,4723,1039,254110
51,59,-170,4791,1069,254228
44,54,-76,4641,1099,254227
47,45,-22,4673,1043,254263
32,41,26,4704,995,254112
40,-16,93,4672,1087,254131
8,-14,44,4753,1043,254217
25,-14,-91,4711,1032,254213
66,-90,-106,4674,1016,254190
37,-104,-81,4716,1030,254239
29,-73,-62,4708,1068,254209
2,-51,16,4689,1044,254165
-39,-45,82,4661,1052,254173
-48,1,150,4703,1017,254229
-83,-12,71,4741,1050,254225
-55,-42,-51,4678,1047,254133
-62,-87,-51,4702,967,254155
-67,-105,-1,4692,956,254177
-96,-67,19,4734,1003,254128
-84,-85,74,4783,1026,254201
-91,-66,151,4751,1017,254230
-110,-56,186,4659,1090,254115
-93,-77,161,4724,1123,254125
-96,-72,21,4777,993,254334
-67,-96,-22,4807,1016,254176
-101,-147,72,4700,1022,254110
-122,-110,104,4605,1052,254163
-134,-64,110,4659,1084,254303
-129,-102,236,4720,1082,254263
-192,-86,305,4770,1131,254288
-197,-33,173,4795,989,254213
-176,-17,6,4741,1000,254170
-171,-33,-29,4743,1011,254239
-159,-21,10,4687,1055,254263
-198,13,-36,4717,972,254236
-181,61,11,4667,946,254229
-194,38,92,4676,949,254251
-177,61,148,4636,982,254208
-203,74,-18,4817,976,254193
-167,74,-124,4708,1022,254073
-157,96,-142,4728,1040,254022
-183,92,-131,4731,1116,254124
-186,110,-167,4706,1027,254178
-172,141,-122,4752,1002,254152
-194,140,12,4712,1038,254149
-193,132,71,4687,1046,254285
-174,114,-50,4735,1044,254233
-119,124,-129,4720,1080,254169
-128,84,-54,4755,999,254103
-106,53,17,4751,1041,254088
-95,73,-33,4763,1057,254133
-79,116,-30,4759,1052,254111
-57,130,76,4745,1036,254040
-62,131,107,4730,1055,254180
-22,124,-1,4737,1023,254217
39,104,-113,4708,1084,254255
75,76,-69,4742,1106,254197
62,24,-12,4789,1027,254129
63,39,-22,4702,1000,254182
56,61,8,4728,1025,254233
60,65,108,4611,1087,254214
43,88,131,4632,1062,254264
58,93,-15,4735,1082,254180
100,57,-115,4705,1085,254092
120,15,-71,4757,1084,254097
121,17,16,4662,1019,254185
85,3,-19,4685,1029,254260
104,-16,27,4778,1006,254201
73,-4,182,4739,1036,254154
35,8,195,4664,1065,254167
62,20,97,4675,1010,254168
72,3,-36,4730,1045,254328
99,11,-8,4728,1079,254199
72,-19,41,4759,993,254199
47,-10,0,4767,932,254243
23,9,22,4780,1017,254253
-17,-1,140,4757,999,254163
-72,15,114,4672,1031,254253
-70,39,-36,4714,1004,254138
-60,-5,-148,4701,983,254238
-36,-4,-105,4781,1048,254247
-82,44,-168,4707,1014,254142
-28,70,-136,4734,1075,254206
-55,53,-32,4734,1066,254269
-60,90,79,4729,928,254222
-72,137,73,4697,1048,254225
-50,140,-16,4727,1063,254109
-49,92,-82,4776,1078,254128
-33,84,-77,4747,1022,254246
-58,73,-77,4715,1024,254304
-48,58,-51,4692,1033,254233
-71,80,21,4717,1010,254219
-76,121,101,4649,998,254194
-76,126,119,4663,1094,254186
-37,159,71,4708,1112,254202
-47,164,-58,4724,1025,254158
-4,124,-49,4807,1017,254219
7,100,-46,4733,1048,254250
40,137,-34,4704,1006,254155
8,115,-1,4732,1025,254245
-9,74,56,4684,949,254254
-11,95,15,4717,957,254169
17,118,-41,4751,1035,254184
9,52,-89,4780,1085,254232
24,17,-111,4768,1010,254237
12,17,-118,4762,1027,254195
-37,20,-76,4739,1027,254143
-48,19,-18,4730,1017,254082
-25,23,86,4760,1075,254053
-32,40,56,4645,912,254094
-21,79,7,4693,966,254145
32,44,-34,4689,1056,254170
46,31,-51,4692,1006,254199
40,19,-35,4732,1009,254120
36,32,-25,4654,975,254140
23,38,17,4684,1051,254229
-15,66,69,4727,1009,254167
-27,82,21,4662,1033,254225
4,63,-32,4743,1021,254100
-7,27,-81,4719,1014,254121
-19,-7,-96,4690,1050,254114
-18,-33,-76,4720,1086,254220
-38,-43,-57,4713,1044,254107
-48,-9,21,4651,941,254178
-90,20,41,4736,944,254182
-74,58,25,4719,1028,254216
-47,71,-24,4658,1030,254195
-54,53,-76,4635,1027,254193
-20,17,-60,4731,955,254196
-25,7,-29,4696,1010,254194
-28,0,69,4752,998,254178
-65,-7,141,4674,1069,254265
-74,21,181,4646,1023,254249
-79,61,172,4685,974,254203
-90,60,114,4639,1009,254171
-39,43,33,4791,1050,254212
-43,43,23,4758,1044,254188
-45,43,-18,4746,1039,254195
-8,34,62,4764,1077,254201
-41,44,103,4772,1046,254138
-41,90,115,4731,1009,254224
-47,107,94,4743,1043,254198
-52,114,14,4755,1094,254159
-39,128,-21,4751,1000,254263
-41,95,-49,4712,1008,254201
-47,77,-72,4716,974,254218
-52,79,-106,4758,930,254326
-51,72,-33,4723,938,254242
-85,76,15,4728,992,254270
-67,164,-29,4735,983,254114
-49,151,-96,4765,1015,254173
-24,63,-102,4759,1021,254142
-1,63,-141,4700,1002,254130
17,61,-137,4675,1016,254197
-20,11,-56,4771,979,254162
0,32,26,4775,980,254193
-18,93,42,4715,998,254237
-48,127,22,4742,1118,254172
9,101,35,4711,1023,254170
34,39,3,4744,1009,254208
-20,27,-73,4723,1016,254133
45,3,-27,4707,1074,254032
1,-56,37,4733,1008,254175
-21,-52,86,4806,1060,254224
-57,-17,33,4736,1006,254276
-6,-5,11,4708,1014,254184
-26,-16,-15,4705,1074,254068
-14,16,-55,4778,1025,254239
21,-42,-86,4740,988,254192
48,-102,-73,4696,993,254200
38,-90,-14,4720,1076,254217
12,-96,148,4714,1057,254154
-23,-102,129,4753,1111,254232
5,-29,60,4675,1033,254260
-21,-12,25,4642,1055,254252
-25,-50,40,4697,1017,254149
-4,-70,17,4808,1035,254158
-10,-65,-38,4816,1086,254157
-6,-91,55,4698,1034,254160
-17,-115,134,4713,980,254219
-41,-43,67,4740,1012,254232
-21,-2,-7,4707,1060,254194
-35,-22,-6,4736,1018,254217
-30,17,-45,4702,1000,254249
-25,24,-145,4728,1047,254302
-10,-37,-127,4782,1040,254203
-23,-25,-74,4691,996,254149
-24,37,32,4677,1025,254221
-64,32,15,4677,1070,254165
-24,44,-49,4658,1047,254170
-18,49,-88,4665,1058,254207
-26,19,-97,4733,1010,254166
5,-9,-170,4695,1010,254154
23,-37,-187,4685,976,254216
13,-47,-95,4731,970,254241
12,-3,15,4698,1055,254234
-7,38,16,4695,1067,254361
26,81,-25,4726,1035,254276
64,106,-31,4724,1055,254184
68,97,5,4736,1071,254253
106,99,-50,4813,1033,254215
134,58,-88,4780,1074,254143
141,17,-6,4773,1022,254166
125,44,72,4755,995,254106
92,71,59,4784,1076,254097
98,83,-2,4737,1058,254157
117,93,-12,4713,1053,254059
90,96,-52,4730,1026,254128
121,76,-108,4726,1006,254175
125,-3,-123,4707,1044,254190
143,-35,-38,4653,1064,254263
82,-36,66,4698,1046,254206
38,-8,91,4744,1071,254236
30,6,27,4702,1034,254239
37,26,3,4711,1050,254163
15,28,-33,4761,978,254221
-10,14,-83,4737,978,254195
-14,-1,-83,4718,1022,254183
-23,-3,4,4734,1011,254050
-56,58,46,4716,973,254217
-48,90,77,4736,1007,254231
-73,62,70,4675,1026,254276
-86,49,68,4684,959,254200
-90,80,-16,4741,1035,254169
-42,70,-82,4746,1024,254169
-46,-2,-29,4789,1044,254230
-59,-11,56,4701,988,254155
-108,-38,108,4697,1056,254245
-119,-14,79,4677,1033,254271
-129,13,33,4760,1030,254248
-115,-12,21,4713,978,254229
-128,-27,-98,4703,961,254191
-92,-50,-160,4715,1068,254069
-97,-101,-103,4720,1079,254203
-104,-127,0,4713,985,254261
-148,-111,35,4713,982,254246
-121,-39,74,4768,1119,254302
-144,26,31,4742,1076,254152
-153,75,32,4742,997,254163
-154,88,-42,4836,954,254243
-142,87,-98,4678,999,254157
-160,59,-69,4669,982,254162
-169,29,42,4674,1012,254180
-196,14,123,4727,1010,254288
-239,27,99,4721,1045,254229
-242,44,98,4772,1070,254198
-228,52,144,4809,1032,254239
-248,67,43,4682,1003,254156
-215,84,-75,4666,988,254271
-176,53,-65,4723,1000,254236
-193,39,11,4704,1089,254137
-183,52,70,4647,1024,254281
-177,52,103,4698,1089,254252
-178,58,163,4737,1131,254193
-179,34,199,4744,1011,254206
-171,38,102,4771,1029,254207
-143,28,9,4798,1023,254126
-144,21,32,4732,1034,254184
-132,4,127,4703,1040,254187
-163,-1,138,4678,965,254171
-154,4,113,4733,1012,254205
-163,-7,79,4756,959,254148
-137,18,46,4660,1134,254172
-106,23,-57,4698,1089,254190
-81,1,-101,4679,1060,254221
-30,0,-52,4640,962,254234
-5,7,45,4693,1006,254216
1,3,84,4700,980,254238
36,21,45,4710,1019,254292
63,46,40,4763,1084,254160
41,66,21,4696,1095,254262
60,83,-99,4652,1019,254132
87,39,-153,4724,1020,254193
82,-29,-105,4763,1032,254131
36,0,-34,4699,976,254061
42,12,27,4695,1017,254190
12,2,26,4716,962,254280
-2,8,4,4656,1008,254221
-2,17,-18,4600,1074,254207
-3,52,-110,4657,1058,254213
31,20,-154,4745,1021,254228
63,-29,-62,4776,1035,254225
36,-20,25,4711,996,254292
22,28,80,4712,1095,254264
0,9,105,4672,1097,254144
19,17,129,4664,1022,254168
-23,32,80,4757,917,254268
-7,52,4,4745,989,254205
-11,24,-78,4746,1026,254208
-6,19,-25,4758,972,254169
-34,-7,48,4764,967,254247
-42,1,109,4672,1086,254347
-57,51,101,4694,1013,254215
-63,95,121,4748,1091,254186
-77,113,46,4738,1059,254188
18,190,-60,4727,969,254139
10,167,-191,4697,1000,254073
75,117,-75,4726,1075,254191
55,84,10,4828,1046,254217
42,118,2,4784,1019,254218
56,98,48,4793,1048,254235
47,85,66,4735,891,254219
39,99,-30,4723,935,254202
34,124,-207,4700,1066,254235
54,95,-269,4686,1057,254219
67,83,-184,4723,1020,254231
20,50,-145,4727,1016,254157
27,17,-112,4710,1041,254170
23,11,-51,4683,984,254163
12,72,-22,4625,961,254123
42,72,-24,4687,971,254134
-1,88,-108,4752,970,254113
61,109,-193,4721,1083,254173
76,81,-69,4741,1031,254171
44,36,25,4741,1000,254228
63,67,31,4751,1092,254228
3,40,59,4731,1056,254163
3,42,107,4686,1022,254264
0,91,6,4714,1018,254284
14,83,-76,4796,1039,254273
35,64,-62,4741,951,254159
22,88,9,4696,1003,254124
-2,77,74,4770,1035,254267
13,48,113,4732,1011,254218
4,41,122,4754,1027,254232
1,49,133,4729,1012,254151
9,42,115,4703,1033,254087
12,46,-44,4679,996,254129
59,23,-102,4686,994,254171
55,-56,5,4741,1110,254160
29,-59,4,4740,1021,254201
38,-26,11,4655,1001,254206
21,-77,79,4660,1003,254218
13,-52,93,4778,1091,254202
20,23,-46,4713,1043,254310
-13,-2,-158,4766,1036,254234
54,-40,-181,4723,1086,254224
45,-22,-114,4787,1025,254240
18,-22,-26,4704,982,254344
18,-22,-17,4708,1018,254267
19,2,30,4723,1031,254139
-53,30,44,4755,1000,254206
-24,83,-51,4677,1003,254195
-11,97,-169,4696,1030,254203
-22,84,-172,4726,1002,254084
-23,87,-121,4725,1037,254144
-32,88,-67,4706,1033,254178
-66,71,11,4712,1037,254150
-110,62,47,4688,1094,254128
-111,65,101,4795,987,254183
-143,110,-28,4750,963,254228
-119,136,-140,4698,1049,254141
-106,90,-110,4706,1009,254099
-98,82,-70,4727,1019,254228
-113,96,-47,4745,1043,254177
-90,51,59,4737,994,254148
-112,26,148,4683,1018,254303
-146,13,149,4712,1016,254187
-111,19,44,4680,1026,254267
-99,24,-75,4717,927,254163
-88,13,-26,4732,1001,254161
-108,-16,-6,4716,1009,254200
-71,-29,-45,4614,1022,254173
-70,-45,23,4688,1052,254211
-60,-41,214,4694,1024,254228
-105,-23,217,4739,954,254258
-61,21,72,4725,1061,254146
-40,28,-31,4726,1063,254188
-27,43,12,4726,1042,254270
-32,73,31,4757,993,254220
-17,52,33,4703,1038,254070
-13,41,60,4689,1038,254225
-24,66,166,4675,1011,254149
-72,90,139,4673,1025,254185
-33,75,-3,4706,955,254143
2,68,-72,4684,969,254122
-9,77,-74,4701,993,254112
-5,41,-84,4729,1040,254134
37,1,-69,4653,1012,254163
3,-12,-5,4685,1013,254199
-8,-20,100,4697,985,254108
-22,-50,62,4775,999,254162
9,-47,-23,4714,974,254193
12,-29,-90,4698,1033,254157
42,-6,-53,4677,1002,254159
63,-20,-44,4726,1094,254200
53,-18,-45,4722,1060,254131
71,-48,36,4736,1045,254317
42,-75,147,4679,1044,254256
43,-50,92,4688,1102,254267
66,-19,-15,4705,1046,254214
54,-16,-63,4711,1021,254163
59,54,-88,4692,950,254228
72,59,-132,4714,995,254187
73,26,-116,4795,1075,254193
62,19,-41,4707,963,254172
55,30,40,4715,1051,254227
27,59,5,4771,1060,254303
62,91,-61,4812,1070,254246
53,74,-95,4831,964,254190
16,105,-138,4747,967,254094
31,149,-165,4784,1036,254168
15,115,-114,4731,1048,254232
11,110,9,4706,989,254251
-39,128,72,4695,1000,254260
-16,105,91,4620,1011,254262
-43,90,-21,4694,1015,254298
-9,100,-64,4711,1131,254252
-12,102,-83,4693,1065,254210
-6,96,-84,4679,1008,254263
-2,58,-69,4721,1054,254211
-11,3,53,4722,1042,254330
-54,-10,103,4652,1090,254413
-58,5,108,4713,1058,254290
-88,4,21,4659,982,254278
-50,15,0,4700,1018,254124
-86,28,-39,4725,1107,254108
-65,49,-47,4707,1045,254225
-57,43,-46,4777,1054,254185
-85,8,27,4752,1054,254138
-109,-2,128,4712,1064,254277
-126,-2,79,4730,1017,254264
-114,-9,33,4719,948,254146
-113,0,19,4715,983,254202
-90,37,-29,4765,1062,254162
-98,64,-101,4753,1020,254161
-68,64,-97,4710,1021,254232
-40,17,57,4738,1049,254229
-67,-9,89,4743,1015,254244
-50,-25,79,4695,989,254171
-35,-51,71,4799,991,254127
-39,-41,78,4681,1026,254185
-57,-38,42,4703,1063,254243
16,-60,-18,4754,1047,254214
16,-48,-43,4826,1050,254089
5,-45,97,4664,1015,254309
-1,-96,90,4665,987,254243
-62,-51,-7,4663,1013,254195
33,-58,-22,4740,1054,254234
-13,-58,8,4744,1016,254116
-16,-28,-55,4671,974,254248
38,11,-120,4637,978,254315
-20,-1,-143,4792,1031,254132
-20,16,21,4757,1087,254139
-41,7,124,4680,1061,254220
-57,17,34,4674,1112,254257
-60,21,-29,4682,1098,254185
-48,51,-7,4689,1002,254175
-81,67,-53,4701,1021,254258
-72,78,-96,4727,1014,254262
-84,44,-48,4751,1058,254193
-103,41,68,4705,996,254190
-148,50,96,4666,1016,254229
-116,77,128,4678,1032,254244
-154,84,41,4782,988,254187
-168,132,4,4746,977,254148
-186,130,-65,4720,1014,254205
-121,149,-71,4620,1011,254074
-121,152,-54,4661,1020,254169
-103,124,97,4678,1093,254262
-142,86,152,4770,1033,254295
-124,61,97,4761,966,254286
-110,10,103,4690,1024,254222
-129,24,71,4710,1025,254194
-142,81,-25,4669,1031,254198
-116,81,-89,4677,988,254164
-112,30,-13,4762,1071,254134
-127,30,93,4723,1032,254168
-139,44,89,4703,1011,254262
-128,-4,62,4696,1026,254224
-97,-31,86,4758,1012,254248
-92,-8,119,4704,1028,254205
-131,36,36,4721,1050,254186
-66,43,-25,4685,1021,254163
-44,13,15,4716,963,254141
-103,26,73,4731,974,254197
-64,67,117,4764,993,254239
-69,47,54,4717,966,254114
-67,8,55,4728,958,254119
-86,34,45,4761,1033,254281
-115,72,-53,4710,1084,254209
-65,59,-118,4721,995,254094
-71,25,-85,4683,1047,254155
-78,11,-20,4684,1005,254173
-103,-6,-30,4683,930,254101
-76,-38,-32,4709,913,254126
-62,-62,-21,4704,991,254196
-59,-58,-1,4724,1035,254212
-48,-35,-84,4700,1015,254169
-6,-25,-151,4690,1011,254213
9,-36,-109,4698,1062,254200
20,-66,21,4676,1021,254185
-2,-51,23,4677,1063,254247
31,-45,41,4733,1007,254227
40,-75,110,4730,1041,254224
28,-43,27,4789,1021,254194
62,15,-76,4775,1085,254227
100,15,-58,4729,1053,254183
123,47,-3,4658,1033,254211
90,79,30,4662,1023,254172
88,35,44,4753,1036,254161
89,32,6,4728,995,254201
103,59,54,4687,1006,254220
62,64,5,4626,1046,254101
88,110,-102,4689,988,254109
102,133,-128,4698,1016,254233
81,133,-29,4670,983,254312
59,122,34,4643,1070,254300
73,104,48,4714,1053,254215
10,92,-9,4667,1053,254195
23,101,36,4735,1002,254149
-41,101,-14,4760,1083,254201
5,101,-92,4706,1089,254171
-63,119,-68,4659,1036,254217
-26,107,-35,4663,1078,254181
-44,116,-10,4773,1092,254245
-61,97,-2,4762,1110,254207
-63,57,-6,4710,1088,254285
-29,36,47,4645,1013,254207
-68,27,-12,4659,1026,254180
-68,47,-106,4608,1033,254220
-28,36,-115,4696,1082,254188
-57,14,-60,4714,994,254175
-63,31,-58,4771,1040,254096
-30,0,-22,4796,1094,254211
-60,-63,21,4763,1061,254204
-41,-68,63,4716,969,254182
-49,-63,24,4722,1017,254226
-57,-40,-60,4757,1009,254199
-30,-16,-82,4717,1048,254168
-26,2,-28,4706,1010,254230
-23,30,-2,4675,1012,254151
-7,30,14,4671,1083,254332
-15,-35,64,4672,1039,254244
-3,-75,94,4663,1114,254175
-21,-45,28,4745,1013,254154
-2,-6,-48,4760,946,254171
22,-21,-1,4716,1038,254202
-1,-11,29,4722,1009,254309
-31,55,-13,4736,1060,254252
6,31,-29,4723,995,254318
-4,-16,-3,4665,994,254296
-16,-14,30,4754,1059,254184
-11,8,-35,4712,1010,254251
-8,9,-107,4751,1002,254194
23,24,-86,4732,1023,254197
14,43,-12,4739,1012,254155
27,65,-32,4691,1058,254305
41,73,-80,4757,1068,254221
58,41,-41,4756,1070,254195
60,13,48,4738,1047,254233
42,43,-17,4684,1038,254296
70,79,-93,4694,976,254232
95,49,-38,4652,983,254317
78,70,5,4728,1008,254238
76,118,-30,4720,940,254195
91,94,-3,4678,982,254222
73,106,19,4637,1020,254277
82,108,46,4711,984,254213
64,91,9,4740,1003,254211
76,107,-52,4664,981,254182
122,113,15,4724,1014,254142
18,131,79,4735,989,254141
60,154,53,4629,1012,254222
70,132,33,4723,1080,254225
61,86,55,4790,1099,254179
39,58,72,4761,1041,254225
11,63,30,4749,1020,254149
2,57,-86,4800,1050,254117
14,51,-72,4746,1066,254192
-28,70,-36,4788,1040,254214
-49,84,-43,4741,1100,254153
-52,41,-69,4694,1057,254237
-59,0,-76,4723,1049,254200
-45,-5,3,4756,949,254165
-96,-29,-34,4755,1026,254126
-98,-17,-111,4725,1081,254028
-72,3,-64,4744,1080,254177
-125,19,-25,4766,1005,254128
-93,50,-58,4699,1070,254280
-116,39,-111,4701,1065,254162
-83,30,-47,4740,1051,254260
-80,4,37,4726,1104,254120
-86,-26,-14,4752,1039,254284
-89,-43,-97,4711,994,254204
15,-52,-25,4740,1049,254201
-106,-8,33,4810,1027,254339
-55,-3,43,4767,1026,254168
-27,-20,33,4670,1014,254139
-15,-49,63,4763,993,254273
-43,-34,54,4768,1009,254239
-12,-36,45,4722,1093,254236
-1,-77,8,4738,1027,254256
24,-59,77,4707,981,254316
4,-25,84,4680,1066,254154
17,-28,64,4697,1045,254060
20,-39,26,4779,1000,254136
37,-30,34,4762,1065,254131
7,-26,-28,4658,1008,254174
44,-25,-102,4736,998,254146
40,-42,-158,4742,1064,254198
36,-2,-126,4685,969,254268
30,38,-82,4746,973,254262
51,68,28,4739,1015,254225
31,83,126,4699,944,254233
20,89,87,4709,959,254245
16,99,-44,4761,1006,254172
35,121,-140,4734,967,254095
17,130,-159,4666,1042,254201
33,117,-136,4650,1084,254203
-40,172,-220,4628,1017,254166
19,167,-280,4702,1067,254213
-7,143,-180,4762,1006,254086
-21,163,-30,4757,979,254085
-20,194,-2,4717,1020,254001
-32,186,-76,4720,1095,254084
-4,140,-6,4741,1018,254181
-7,128,76,4754,964,254212
-21,155,87,4698,1133,254162
-2,160,50,4701,1067,254092
-11,131,71,4761,994,254114
-33,146,99,4709,1030,254149
-32,136,130,4660,979,254195
-30,109,86,4670,995,254185
-32,84,73,4788,1039,254254
-27,33,143,4737,991,254280
-25,18,205,4754,1047,254176
-27,28,211,4696,1002,254169
-20,22,213,4705,1013,254300
-43,-22,140,4694,1041,254235
-77,-28,-34,4708,999,254271
-40,-21,-51,4715,940,254284
-100,-76,8,4725,1007,254268
-108,-75,89,4715,1058,254196
-66,-42,72,4660,1025,254199
-125,-21,83,4676,1067,254158
-106,-21,142,4779,1032,254179
-91,10,128,4738,1025,254171
-103,-8,32,4728,1088,254238
-107,-48,-31,4723,1056,254235
-111,-56,-66,4744,975,254253
-158,-70,-46,4731,983,254187
-150,-63,-40,4699,1020,254182
-176,-52,-76,4731,1043,254144
-170,-33,-58,4622,1000,254180
-183,-40,-73,4774,980,254158
-138,-42,-54,4782,998,254161
-157,-64,-99,4694,989,254184
-135,-97,-83,4664,1050,254255
-134,-162,7,4684,1035,254251
-160,-133,43,4671,1006,254195
-147,-77,44,4646,992,254231
-142,-83,93,4687,1008,254216
-145,-39,47,4726,1058,254314
-103,12,-43,4718,995,254235
-111,-35,-92,4727,1062,254175
-89,-66,-50,4696,969,254147
-96,-49,3,4706,969,254198
-90,-15,51,4807,1044,254231
-107,-8,62,4664,1081,254248
-113,2,71,4756,1049,254134
-95,43,46,4741,1052,254164
-78,70,2,4749,1055,254175
-72,52,1,4727,1033,254168
-52,63,47,4656,1021,254149
-88,82,75,4693,1004,254232
-93,101,101,4712,1092,254172
-80,95,159,4735,1080,254158
-120,97,143,4782,1043,254174
-108,124,90,4763,1060,254148
-124,131,48,4678,1038,254203
-137,114,7,4669,1090,254188
-108,83,40,4774,1071,254165
-134,53,67,4666,1040,254226
-138,114,32,4658,954,254168
-133,119,8,4688,962,254186
-128,87,36,4722,1044,254153
-142,111,-5,4691,1032,254217
-109,125,-31,4631,983,254143
-126,44,-51,4636,914,254139
-112,4,-48,4697,967,254023
-92,-7,-17,4707,995,254200
-104,17,-2,4718,1001,254188
-103,39,21,4712,1016,254124
-101,44,8,4727,1005,254117
-86,50,-47,4693,991,254189
-55,50,-81,4703,1012,254188
-50,16,-76,4670,1052,254266
-53,-11,-48,4633,1008,254130
-48,-47,-8,4638,956,254068
-45,-38,16,4686,950,254105
-49,-28,22,4674,960,254305
-20,-27,22,4678,1038,254208
14,21,-45,4713,1015,254122
28,48,-95,4745,1024,254228
58,-9,-53,4737,1040,254216
84,-44,-5,4657,1013,254251
37,-55,6,4755,952,254330
65,-74,63,4688,1046,254252
42,-85,74,4735,1079,254320
0,-42,23,4678,1003,254304
48,-3,-29,4697,1057,254236
76,7,-36,4733,1047,254165
66,55,-51,4748,1011,254193
73,79,-49,4718,1064,254156
90,59,-23,4720,992,254178
78,61,-5,4728,1106,254285
87,104,50,4707,1036,254212
82,117,59,4782,1005,254192
73,117,-31,4706,1022,254188
106,90,-77,4701,1013,254125
120,62,-51,4710,1009,254153
93,42,-64,4702,1050,254259
145,48,-48,4766,1080,254212
133,38,-16,4791,1050,254228
121,55,41,4718,1015,254237
101,87,52,4724,1117,254331
94,114,-25,4707,1067,254157
78,96,-112,4677,997,254098
117,42,-42,4722,1014,254078
75,34,-44,4754,991,254134
104,36,-56,4679,1020,254221
120,3,-3,4680,986,254166
105,-1,71,4691,999,254095
98,34,18,4740,998,254273
109,65,-37,4796,1029,254183
103,57,-22,4811,1007,254165
93,70,2,4703,987,254271
56,72,-39,4707,1015,254161
47,37,-43,4705,1049,254179
28,29,1,4717,1075,254254
8,34,72,4745,1051,254190
-9,41,22,4718,995,254214
7,40,-79,4686,1063,254078
6,20,-104,4644,983,254108
25,-9,-60,4685,1094,254179
-104,-4,-109,4686,1069,254197
-34,-28,-118,4722,1000,254220
-56,-42,-43,4717,1060,254240
-101,-30,25,4744,997,254221
-118,-28,5,4723,1038,254183
-97,-8,-38,4822,1067,254196
-100,-1,-78,4767,1048,254148
-104,-13,-61,4693,1018,254171
-117,-17,-105,4660,1005,254123
-113,33,-95,4682,1027,254147
-125,15,32,4701,1053,254178
-126,13,106,4735,1006,254233
-169,62,0,4703,1060,254162
-122,92,-54,4741,1053,254055
-112,47,14,4719,977,254207
-92,80,42,4766,1045,254246
-81,75,-37,4717,1055,254114
-23,53,-34,4748,1078,254222
-30,85,16,4787,1069,254100
-36,105,119,4706,1020,254186
-59,115,43,4635,1004,254199
-22,148,-33,4627,1025,254152
6,143,-1,4675,1038,254257
-6,125,47,4697,1017,254261
7,118,-4,4715,1035,254243
65,71,1,4693,1031,254193
51,31,90,4689,1046,254215
25,14,143,4670,1112,254247
49,37,120,4666,1078,254246
23,28,-12,4725,1118,254211
66,34,-2,4726,1103,254248
42,17,28,4730,1145,254144
36,18,-29,4630,1063,254125
53,4,-62,4670,997,254187
77,-41,13,4712,974,254183
29,-10,83,4710,1024,254159
40,28,50,4729,1076,254191
31,35,-40,4750,1050,254245
43,39,-79,4706,1001,254188
29,65,-74,4736,1024,254199
-13,58,-142,4721,997,254213
14,39,-133,4683,961,254148
30,25,-14,4737,1059,254155
-24,52,16,4781,1031,254161
-2,94,-58,4665,989,254263
18,80,-97,4693,951,254208
10,81,-128,4719,950,254202
21,89,-98,4703,1009,254202
26,47,-99,4715,1005,254297
20,5,-105,4763,1023,254191
39,2,-1,4750,980,254092
47,-29,61,4797,1034,254205
-63,41,-42,4625,1015,254185
42,19,-41,4709,1006,254204
-2,-28,20,4767,987,254157
-12,-3,11,4740,1035,254185
4,-2,-42,4711,1038,254122
10,-43,-56,4701,1073,254231
2,-69,15,4688,989,254187
-28,-50,93,4799,1001,254185
-54,-1,91,4759,1089,254218
-72,32,5,4685,1068,254243
-45,49,29,4733,1052,254166
-66,74,-9,4740,1016,254081
-55,116,-83,4773,959,254111
-72,52,-48,4740,1014,254199
-64,38,33,4741,1037,254185
-108,60,34,4774,986,254133
-85,63,61,4802,1060,254220
-93,87,13,4750,1019,254278
-67,121,18,4726,1050,254277
-116,100,-23,4694,984,254164
-76,108,-52,4703,995,254128
-72,94,-16,4661,1008,254183
-93,61,92,4684,997,254145
-73,81,126,4702,1045,254074
-94,99,65,4725,988,254137
-73,97,-21,4697,1051,254205
-31,83,-18,4729,1059,254186
-90,97,-62,4631,953,254189
-59,108,-132,4597,978,254143
-16,69,-61,4709,958,254114
-10,16,20,4711,993,254208
-10,35,78,4747,1054,254226
0,47,66,4685,1125,254191
20,38,30,4682,1050,254142
12,29,4,4731,1008,254145
19,8,-16,4727,1005,254229
11,24,-49,4779,1070,254294
38,-21,15,4729,1046,254254
15,-78,78,4699,1063,254217
-7,-67,21,4690,1033,254163
26,-79,9,4739,1078,254223
-19,-122,34,4785,1039,254300
-24,-80,6,4729,934,254280
-2,-71,-46,4701,996,254145
-30,-129,-58,4705,1089,254111
-29,-95,-18,4687,1082,254162
-55,-59,37,4691,1070,254144
-116,-78,-18,4645,1017,254181
-103,-41,-32,4716,1109,254212
-110,-7,-51,4692,1055,254254
-128,18,-37,4735,1106,254220
-126,45,-70,4696,1080,254240
-99,67,-51,4683,1038,254263
-104,37,-29,4648,1013,254265
-80,21,81,4677,1042,254165
-85,42,140,4777,1047,254254
-90,64,90,4746,1049,254257
-24,42,97,4758,1047,254240
1,57,67,4693,1080,254247
23,135,-35,4730,1082,254208
42,144,-85,4646,995,254135
73,119,-25,4701,955,254073
70,189,3,4751,985,254068
54,197,24,4711,1003,254173
52,164,53,4784,1028,254160
83,181,46,4721,1070,254191
32,183,-2,4645,1052,254324
58,158,-17,4701,1010,254094
29,114,-76,4687,1010,254166
8,89,14,4670,1004,254162
-45,70,65,4704,1066,254198
-58,68,114,4648,1019,254184
-103,38,82,4784,1069,254224
-128,-17,65,4688,978,254221
-188,-32,28,4704,1041,254229
-232,-19,-27,4704,991,254277
-227,-40,22,4730,1040,254345
-282,-89,20,4715,1054,254152
-261,-84,59,4779,1015,254185
-315,-64,26,4715,977,254198
-344,-66,14,4740,1057,254264
-356,-89,50,4732,1071,254294
-390,-80,16,4802,1044,254167
-381,-25,-23,4649,1045,254107
-383,-50,-15,4684,1011,254232
-330,-71,82,4761,1001,254298
-306,-83,130,4681,979,254176
-276,-96,84,4665,979,254253
-215,-119,43,4648,980,254138
-154,-127,67,4705,1002,254119
-136,-95,2,4653,950,254178
-13,-90,-38,4771,1020,254219
64,-102,-63,4771,1023,254144
105,-72,-70,4747,1057,254230
162,-89,-42,4661,1073,254332
226,-86,-11,4678,1059,254280
230,-62,-44,4694,1099,254176
291,-74,10,4697,1016,254096
266,-98,13,4760,995,254126
258,-12,-62,4754,991,254197
284,29,-12,4703,1044,254177
278,12,22,4696,1053,254157
181,112,15,4697,1002,254141
205,134,14,4742,1029,254235
161,133,36,4746,1018,254217
150,208,26,4667,988,254086
85,265,-12,4663,1042,254249
49,291,-40,4654,1058,254159
17,298,-53,4706,998,254159
-29,289,42,4752,1011,254204
-102,295,46,4684,1026,254230
-124,246,88,4693,1092,254233
-204,165,130,4766,967,254198
-270,178,62,4712,1035,254235
-318,134,51,4675,1010,254266
-382,78,58,4689,1031,254162
-404,111,78,4694,989,254212
-426,100,132,4753,1068,254300
-426,78,110,4696,1055,254220
-399,87,64,4653,994,254164
-388,31,66,4694,1023,254188
-335,37,62,4728,979,254222
-316,70,-57,4742,984,254197
-258,101,-125,4698,1002,254220
-217,89,-128,4676,1068,254195
-178,109,-48,4646,1065,254166
-134,113,28,4690,1040,254172
-119,69,27,4665,996,254242
-95,-41,-12,4645,1042,254223
-67,-94,0,4702,1014,254120
-88,-111,15,4636,975,254218
-72,-173,1,4636,1085,254214
-21,-267,-17,4736,1023,254152
11,-268,-35,4714,1026,254254
43,-237,-16,4705,1066,254235
85,-271,28,4723,997,254318
129,-279,13,4747,1000,254199
166,-238,-68,4776,1016,254261
193,-211,-126,4750,1036,254192
221,-175,-127,4717,986,254188
209,-105,-145,4693,992,254243
214,-67,-138,4707,995,254206
215,-29,-182,4719,1044,254176
262,9,-176,4702,1054,254185
250,7,-103,4715,1043,254144
213,12,-87,4784,1022,254193
282,85,-109,4747,1046,254192
270,99,-145,4724,1040,254181
273,79,-95,4723,1001,254362
336,111,-57,4741,1059,254206
345,163,-26,4789,1044,254244
376,116,37,4807,992,254266
434,95,79,4774,1033,254313
431,84,-31,4787,1020,254200
466,77,-56,4759,1062,254257
462,79,-81,4717,1005,254185
472,113,-36,4724,1029,254228
411,125,-30,4738,1013,254253
410,153,-61,4686,1018,254142
384,100,11,4668,956,254257
310,82,67,4694,949,254236
251,96,14,4707,1048,254168
194,64,21,4736,1068,254153
97,101,8,4728,1071,254159
26,171,28,4717,1065,254149
-77,145,26,4778,1039,254219
-85,165,3,4743,992,254232
-162,165,11,4701,999,254214
-225,89,70,4691,1024,254085
-278,85,-28,4689,1028,254062
-325,97,-90,4733,952,254164
-376,51,-62,4672,1036,254171
-405,49,-12,4717,1023,254238
-472,79,-26,4686,1075,254163
-499,82,-39,4656,1055,254147
-513,51,-14,4655,1042,254129
-529,6,86,4650,1039,254212
-564,16,35,4673,996,254212
-528,-2,-33,4694,1037,254199
-523,-55,-23,4734,1098,254206
-526,-14,21,4751,1066,254215
-507,43,-8,4723,999,254200
-450,16,27,4715,950,254176
-411,-20,32,4807,1011,254192
-362,-1,36,4661,997,254218
-323,-30,-31,4633,1059,254207
-216,-52,-63,4709,976,254133
-157,-53,-81,4678,986,254143
-129,-12,-97,4756,970,254129
-57,12,-78,4772,967,254181
12,46,-50,4728,994,254243
40,61,-31,4790,978,254197
107,41,27,4698,1005,254179
130,39,-26,4688,1101,254183
220,78,-24,4793,1023,254189
228,71,-12,4822,1069,254268
279,95,35,4678,1100,254196
304,149,-2,4680,1082,254188
350,179,-41,4722,1015,254161
404,118,13,4674,1039,254274
417,72,27,4688,986,254285
425,84,-25,4763,997,254192
464,31,-37,4652,1063,254309
456,-7,-40,4669,1039,254162
451,31,-63,4683,1036,254166
460,64,-27,4685,1141,254168
460,56,-7,4803,1013,254222
503,40,59,4789,1035,254249
442,30,85,4797,1032,254204
413,26,17,4725,1000,254222
411,-5,23,4689,1054,254236
339,-25,7,4675,988,254109
271,14,-1,4691,1036,254199
223,27,-9,4560,1061,254196
185,56,-31,4667,1028,254194
135,80,-11,4688,1045,254165
85,32,27,4696,1095,254258
40,10,-33,4667,1057,254244
0,10,-53,4724,962,254239
-53,-39,40,4652,1010,254238
-133,-4,69,4704,998,254172
-193,39,43,4692,996,254219
-256,24,25,4679,967,254197
-280,2,66,4664,973,254322
-330,0,101,4718,996,254098
-390,10,11,4808,985,254144
-390,-15,-47,4736,976,254177
-441,-31,-11,4643,1086,254166
-525,43,-33,4699,1083,254269
-574,69,-56,4695,1046,254155
-563,38,-43,4691,1071,254162
-616,160,2,4622,1024,254244
-637,148,87,4714,1053,254333
-621,42,28,4676,1023,254363
-536,58,16,4711,1003,254272
-604,84,56,4737,1013,254175
-573,44,71,4721,1041,254209
-488,55,25,4701,1036,254226
-501,102,-14,4754,987,254170
-414,84,75,4738,1098,254169
-386,26,118,4781,1111,254238
-372,27,18,4635,1029,254270
-278,6,-29,4778,1069,254222
-228,9,48,4727,1163,254193
-224,50,58,4701,1110,254265
-159,152,6,4673,1037,254238
-126,146,-79,4778,1017,254094
-18,131,-6,4741,1014,254222
9,178,7,4757,1048,254177
47,133,-80,4748,1053,254225
176,72,12,4665,997,254117
141,27,-38,4739,1042,254192
264,97,31,4733,1010,254280
236,45,-78,4676,1160,254265
366,28,-49,4707,1061,254146
364,52,10,4700,1017,254164
388,14,10,4727,999,254081
451,-101,-105,4740,981,254059
504,-152,-98,4746,958,254171
438,-136,-108,4741,991,254215
438,-134,-89,4704,996,254170
455,-109,-96,4697,974,254231
444,-120,-47,4763,1000,254132
423,-100,23,4740,1085,254125
434,-102,53,4686,1129,254224
408,-105,-22,4707,1013,254220
399,-94,12,4703,1085,254352
351,-124,96,4766,1011,254179
298,-51,81,4729,975,254199
247,-3,7,4698,1040,254106
225,-18,46,4755,985,254157
148,25,88,4744,975,254224
96,89,95,4718,1060,254164
54,63,10,4665,1010,254182
-35,44,18,4763,996,254204
-43,21,72,4745,968,254216
-151,64,36,4745,950,254223
-179,82,30,4692,1030,254111
-217,108,111,4703,1056,253997
-281,164,118,4686,1041,254080
-311,168,91,4741,1111,254252
-333,111,39,4775,1045,254202
-321,135,0,4767,993,254136
-375,118,53,4744,1062,254133
-413,96,29,4711,1049,254130
-405,146,14,4700,1003,254225
-455,137,18,4708,1032,254177
-461,103,8,4728,1046,254203
-451,89,-46,4728,1076,254157
-474,82,-91,4676,1031,254141
-449,43,-4,4675,1056,254182
-476,3,-6,4718,1005,254187
-474,42,-95,4720,1024,254217
-461,36,-43,4801,990,254230
-448,22,34,4722,947,254155
-426,71,16,4720,942,254198
-372,68,-52,4699,1015,254113
-330,16,-45,4720,1028,254272
-303,19,40,4685,1002,254247
-304,30,59,4687,1061,254201
-293,2,-14,4691,1014,254202
-233,-19,-23,4698,977,254082
-192,7,95,4708,976,254211
-202,34,54,4699,1005,254331
-118,0,-45,4690,1110,254194
-68,-64,-74,4711,1103,254175
-57,-60,-5,4700,1023,254213
-53,-88,36,4673,1011,254230
6,-146,10,4711,980,254180
15,-146,-11,4718,968,254225
73,-118,137,4715,1022,254201
85,-108,197,4713,1033,254232
137,-109,88,4715,986,254221
185,-122,-22,4708,1048,254117
234,-158,83,4711,1029,254230
224,-147,140,4678,992,254309
243,-65,68,4644,1023,254235
243,-71,10,4694,1032,254145
253,-51,109,4667,966,254239
197,46,81,4687,1060,254280
236,63,-15,4676,1092,254273
236,-27,-75,4697,1073,254154
262,-23,-19,4772,974,254137
196,10,44,4690,932,254214
197,-16,38,4638,1068,254226
190,-24,5,4729,972,254242
202,23,48,4767,991,254241
83,78,43,4692,1063,254214
128,64,-15,4704,1014,254133
126,70,-135,4799,1041,254152
112,71,-116,4737,984,254077
75,31,-62,4719,1018,254153
54,63,-72,4747,1103,254261
8,81,-128,4704,1032,254199
-17,81,-33,4698,1065,254200
-53,134,30,4727,1027,254259
-88,205,-43,4738,1067,254301
-101,182,-107,4746,994,254261
-97,141,-79,4731,1044,254198
-138,139,-59,4640,990,254291
-149,131,-23,4668,1022,254170
-148,86,-11,4725,1067,254238
-150,93,2,4817,1015,254263
-147,132,25,4718,1066,254090
-118,98,47,4669,981,254129
-116,61,-3,4671,1027,254208
-81,55,-18,4725,1064,254077
-92,21,-29,4686,1021,254106
-101,-12,-30,4703,1085,254194
-68,-16,6,4735,1064,254202
-84,6,-13,4731,973,254196
-91,8,-72,4673,1075,254139
-23,8,-31,4710,1045,254213
-66,34,-56,4812,1037,254239
-20,41,-51,4745,955,254312
-3,-20,-15,4725,985,254207
-17,14,-58,4716,1019,254178
17,56,15,4681,1013,254136
16,40,62,4773,1002,254118
35,106,-39,4757,1022,254219
93,101,-75,4743,1066,254189
116,66,-48,4737,979,254134
126,65,-75,4679,1000,254256
156,40,-93,4788,1050,254286
142,-17,-133,4727,985,254224
168,-8,-89,4672,989,254210
151,9,-55,4687,974,254181
142,36,-93,4629,964,254206
165,36,-129,4722,1026,254287
170,28,-109,4745,996,254217
168,39,-83,4680,1049,254170
157,13,-108,4739,1070,254067
140,-29,-115,4778,1023,254273
147,-16,-42,4752,1012,254223
93,5,19,4705,1046,254224
96,34,23,4710,1071,254192
122,7,-36,4676,1078,254236
89,33,-53,4730,1045,254250
90,10,-36,4755,1036,254215
99,-4,-14,4644,1052,254289
74,-1,3,4663,1074,254202
43,-15,76,4750,1057,254296
23,7,83,4742,1032,254160
4,38,56,4722,1092,254197
3,34,46,4760,1061,254222
9,12,68,4708,1062,254139
-22,17,39,4780,1025,254171
-27,23,1,4770,1086,254219
-59,-5,27,4719,1066,254268
-53,3,118,4714,1114,254154
-84,49,103,4707,1041,254052
-104,102,6,4755,995,254142
-100,89,-29,4731,1008,254239
-128,87,-22,4747,1067,254232
-145,93,-54,4702,1054,254205
-107,63,-49,4733,1011,254107
-146,22,-84,4680,1038,254188
-143,9,-36,4733,1062,254145
-150,16,-5,4772,1034,254122
-162,86,-49,4749,1051,254175
-137,95,-82,4735,1054,254146
-101,73,-58,4777,1067,254113
-151,108,-69,4687,987,254243
-105,123,-61,4754,1069,254219
-104,90,8,4787,1052,254362
-96,110,30,4714,989,254257
-71,150,51,4670,1054,254144
-63,157,56,4724,1046,254084
-38,164,11,4786,1031,254172
-5,165,23,4783,1010,254277
-16,152,-19,4711,963,254253
44,144,-32,4735,987,254201
45,84,34,4701,977,254245
47,59,138,4750,974,254280
55,76,124,4735,1081,254217
67,86,63,4692,1083,254226
70,84,43,4731,994,254189
87,84,23,4808,1008,254120
91,61,15,4738,1008,254208
103,26,9,4707,968,254147
83,21,28,4785,1032,254099
88,-7,85,4739,1050,254223
70,23,63,4705,1077,254109
60,41,26,4808,1109,254098
87,24,36,4771,1078,254213
41,21,-16,4708,1029,254260
29,44,-66,4694,1048,254112
42,4,-51,4670,1028,254187
21,-32,15,4673,944,254223
15,-47,66,4728,1078,254263
-79,-6,53,4673,1023,254148
-60,-8,1,4671,1015,254084
-67,-14,35,4699,1005,254135
-110,8,-33,4676,961,254167
-90,4,-115,4700,986,254139
-133,-47,-145,4735,977,254106
-148,-58,-93,4704,1020,254124
-174,-65,-16,4678,1005,254228
-203,-70,24,4717,988,254281
-207,-53,-19,4677,1005,254191
-199,-37,-16,4709,1021,254141
-239,-24,-48,4706,999,254163
-226,2,-122,4745,1030,254150
-218,-35,-104,4712,1027,254311
-222,-51,4,4608,1079,254213
-252,-36,33,4762,1042,254221
-237,-23,36,4719,1093,254212
-205,-14,29,4775,1025,254232
-196,7,51,4662,986,254207
-187,34,34,4735,1057,254203
-150,56,-32,4716,1042,254209
-123,37,-36,4716,1080,254241
-114,8,33,4585,1042,254201
-113,30,65,4752,990,254150
-108,72,63,4706,1082,254175
-90,75,73,4699,1094,254182
-35,94,98,4724,1046,254160
-103,148,61,4747,1072,254232
-32,155,-18,4737,1035,254253
-3,135,25,4729,1041,254166
-6,107,110,4703,1021,254230
-8,113,107,4691,996,254220
-9,125,56,4694,1046,254188
6,141,36,4725,1036,254211
18,147,81,4707,1056,254142
-17,149,-21,4715,924,254093
44,171,-97,4657,945,254346
44,116,-79,4791,1013,254197
61,64,12,4822,1013,254167
55,63,45,4775,1050,254186
86,67,5,4685,1084,254163
81,47,-27,4688,1099,254182
104,50,-2,4717,1084,254081
67,60,-73,4772,1023,254262
106,45,-136,4749,1050,254161
122,5,-92,4729,1049,254152
106,-31,-9,4729,1017,254191
85,-38,9,4745,1026,254183
87,-50,10,4706,998,254224
91,-62,45,4741,990,254207
71,-32,59,4662,1059,254170
42,-19,-13,4718,1001,254155
47,-43,-80,4670,1009,254195
75,-40,-61,4674,1027,254209
-26,-41,38,4819,1031,254063
-18,-94,66,4749,1042,254229
-6,-94,57,4798,946,254254
-30,-82,79,4708,1058,254255
-64,-81,136,4711,1046,254108
-72,-53,64,4673,1002,254157
-94,-44,-41,4712,1060,254257
-86,-69,-7,4680,1043,254293
-113,-52,95,4713,1061,254235
-162,-36,108,4706,1059,254210
-186,-41,84,4743,1051,254274
-174,-3,61,4688,938,254176
-208,23,69,4699,1047,254136
-250,29,49,4709,1052,254136
-241,30,-48,4707,984,254147
-195,9,-45,4703,982,254168
-243,1,7,4750,1001,254214
-296,36,19,4777,972,254098
-256,-16,99,4748,980,254151
-225,13,65,4725,1026,254109
-302,73,-51,4740,992,254164
-176,72,68,4749,1020,254166
-245,72,-102,4767,1012,254231
-232,111,-191,4688,1025,254202
-125,49,7,4741,1050,254155
-251,63,-50,4728,957,254187
-111,76,-11,4582,1055,254301
-161,16,77,4726,1072,254301
-174,116,-49,4730,1014,254185
-81,176,-25,4680,1003,254297
-108,108,-24,4758,1011,254191
-66,162,-80,4771,953,254155
-26,141,0,4771,1053,254140
-68,80,3,4745,1059,254253
27,108,32,4685,974,254309
6,25,54,4718,985,254228
5,3,56,4692,1066,254143
47,36,-22,4733,1034,254136
11,-8,-22,4731,1064,254142
71,-45,47,4727,1039,254148
57,-4,-3,4780,1076,254174
23,-18,26,4748,1065,254233
87,-47,104,4730,1049,254236
68,-43,70,4774,1018,254136
81,-60,15,4709,1077,254199
96,-45,28,4740,1000,254190
68,-34,-67,4750,1044,254212
111,-47,-77,4716,1067,254134
101,-64,-9,4749,1057,254126
93,-43,18,4672,1042,254102
76,-29,18,4719,1007,254222
147,-45,84,4775,1060,254227
64,-12,39,4789,1028,254057
105,43,-83,4645,982,254126
150,-23,-56,4733,1083,254212
101,-30,-59,4739,1003,254247
98,16,-71,4675,1027,254110
89,-35,3,4726,1138,254080
59,-68,23,4788,947,254261
91,-35,33,4646,1001,254314
56,-36,28,4649,1025,254220
6,-22,-67,4706,1015,254161
76,29,-112,4665,1081,254208
26,-15,-126,4730,1021,254186
24,-20,-127,4670,967,254128
-3,-3,-98,4689,994,254148
-40,-30,-71,4685,1007,254135
6,-23,12,4654,1036,254191
-75,-17,-36,4715,1026,254215
-64,53,-67,4661,1059,254236
-42,21,-22,4721,1061,254191
-58,4,-58,4754,1038,254127
-51,68,-104,4667,920,254158
-44,62,-39,4640,1026,254259
-71,32,41,4664,1021,254251
-46,55,89,4729,1074,254245
-47,77,20,4744,1109,254195
-42,68,-53,4810,1025,254121
-14,71,-14,4723,1053,254146
-58,103,-21,4673,1050,254144
-27,134,-71,4643,1065,254258
-16,64,-63,4722,1059,254286
24,54,28,4789,979,254208
23,94,31,4715,1055,254139
32,105,-44,4690,1030,254198
78,77,-43,4747,987,254125
52,99,-34,4735,1075,254163
94,110,29,4709,1084,254250
73,73,20,4711,1026,254172
97,75,-28,4678,1068,254199
109,54,35,4803,1053,254268
97,30,70,4795,1041,254210
89,78,1,4711,993,254156
150,104,-42,4658,1082,254173
102,61,-53,4765,1045,254232
149,77,-38,4687,1042,254165
109,93,-111,4727,1010,254144
109,66,-37,4701,990,254173
108,6,77,4715,1029,254185
82,25,70,4775,1047,254231
89,59,-12,4627,1088,254256
100,36,-8,4733,1065,254170
63,24,-18,4729,1054,254224
44,61,-80,4696,1053,254224
47,63,-120,4715,1001,254252
31,44,-111,4695,992,254143
26,32,-17,4662,981,254238
-29,31,-37,4683,1001,254234
-1,47,-85,4703,1104,254215
-16,14,-124,4665,1082,254090
-19,10,-97,4729,1009,254179
-40,39,-128,4740,1035,254197
-20,44,-136,4734,1083,254228
-37,48,-114,4708,1012,254254
-28,21,58,4752,964,254271
-83,15,54,4722,985,254180
-40,42,31,4695,1050,254134
-73,15,-14,4680,1013,254194
-45,30,46,4774,1059,254139
-97,26,-13,4759,1000,254107
-75,50,-42,4660,921,254083
-68,35,18,4678,932,254108
-102,23,35,4637,913,254105
-84,30,55,4637,982,254172
-73,30,50,4660,1033,254130
-101,32,45,4688,1083,254114
-82,42,57,4793,1029,254153
-162,53,6,4660,1043,254180
-94,57,-37,4727,1047,254180
-112,44,5,4708,976,254188
-139,34,84,4678,1035,254154
-93,64,121,4726,1002,254076
-126,56,103,4672,989,254204
-96,64,98,4663,1053,254235
-74,58,106,4688,944,254129
-119,68,17,4701,988,254264
-70,104,-5,4694,991,254202
-92,87,37,4746,1034,254044
-89,112,62,4712,1049,254111
-40,115,82,4697,1104,254172
-79,104,-5,4756,1057,254178
-23,92,-27,4679,980,254123
-32,74,-26,4718,1043,254153
-47,112,-81,4659,989,254197
-15,155,-107,4662,1044,254153
-21,127,-63,4702,1053,254164
-39,116,-22,4699,979,254149
-19,127,-37,4704,1058,254252
1,74,-37,4626,1115,254219
-1,23,-13,4619,1051,254148
-24,32,-70,4715,1012,254199
32,17,-46,4753,1066,254125
-30,31,-81,4747,1053,254192
22,24,-20,4728,1057,254171
-34,22,44,4680,1044,254121
-59,60,18,4689,1090,254183
-15,50,34,4765,1048,254298
-38,24,43,4769,1028,254231
-46,48,21,4709,1021,254128
-50,82,-43,4717,1162,254202
-29,41,-29,4675,1037,254164
-69,9,-6,4678,1015,254172
-46,15,70,4721,1112,254249
-90,-4,69,4739,1046,254216
-65,27,52,4771,1003,254258
-82,-7,57,4703,1028,254208
-87,-18,39,4691,1004,254224
-99,46,-30,4746,1030,254251
-103,27,-65,4714,1025,254223
-94,6,17,4741,1001,254175
-115,6,68,4633,1048,254154
-127,15,55,4700,1010,254235
-125,-48,72,4707,992,254219
-91,-79,109,4775,1060,254125
-123,-49,77,4777,1009,254125
-127,-17,-7,4693,1058,254176
-84,-4,-12,4685,1060,254167
-107,6,39,4731,1073,254038
-132,16,74,4626,1034,254129
-79,24,84,4678,969,254142
-83,4,31,4703,1006,253997
-69,-7,134,4711,975,254210
-79,-9,152,4721,975,254264
-80,54,16,4702,997,254200
-56,57,-16,4783,1036,254206
-35,54,58,4738,1046,254196
-86,81,5,4741,1027,254211
-15,93,-19,4715,1081,254249
-25,41,-17,4730,949,254265
13,50,46,4709,1003,254231
-7,28,39,4726,1002,254256
11,48,-35,4636,1006,254255
22,64,-88,4666,1084,254153
42,63,23,4708,1031,254225
-7,71,-2,4719,1093,254233
53,104,-15,4682,1110,254212
34,60,-31,4757,1039,254258
62,59,-13,4764,1029,254171
29,78,-51,4685,1066,254195
49,53,-76,4705,1043,254268
58,43,-55,4670,1044,254213
12,65,-16,4727,994,254165
4,66,-8,4773,1011,254208
20,21,-36,4690,1022,254231
13,-32,-14,4680,1062,254256
20,-12,53,4701,1070,254296
-35,-21,-3,4705,1033,254182
-17,-17,-58,4671,1030,254180
-17,-3,-107,4648,1035,254209
-26,2,-15,4769,1062,254223
-52,-11,32,4774,1015,254229
-49,-7,9,4743,996,254207
-66,-52,13,4784,998,254133
-89,-90,81,4721,1052,254131
-121,-65,40,4707,1001,254166
-114,-44,-38,4728,996,254175
-135,-54,-54,4726,1002,254205
-129,-30,26,4734,990,254193
-179,32,28,4672,989,254086
-136,31,21,4648,1031,254069
-149,-18,35,4730,1034,254137
-184,-18,56,4700,1048,254212
-188,-1,30,4676,1009,254192
-179,-54,26,4684,1010,254256
-191,-55,-23,4703,987,254343
-168,-38,21,4754,1031,254147
-200,-35,16,4718,993,254127
-152,-23,17,4724,1040,253954
-150,-54,53,4767,981,254262
-154,-49,63,4795,1046,254325
-141,-31,16,4712,1061,254179
-135,-42,-50,4747,1099,254183
-112,-42,-52,4760,956,254207
-110,-23,-6,4758,1016,254204
-143,10,-7,4684,1093,254176
-106,15,12,4729,980,254240
-74,-13,47,4777,1010,254175
-93,-21,55,4672,1118,254167
-51,15,52,4727,1119,254215
-68,17,19,4752,1066,254176
-12,62,17,4689,1027,254152
-4,76,-7,4730,1018,254169
10,100,-8,4676,1017,254181
35,119,-16,4723,1042,254210
39,96,10,4676,1037,254195
59,65,4,4752,990,254106
76,52,-31,4789,940,254253
75,67,-43,4748,969,254186
76,103,-40,4732,988,254174
65,105,-59,4799,991,254191
87,118,-69,4754,1082,254293
87,104,-75,4707,1050,254231
108,78,-14,4664,1033,254255
96,24,-29,4627,1092,254247
75,12,-62,4631,1023,254116
106,-22,-59,4652,1061,254229
70,-7,-37,4648,977,254125
73,24,-34,4691,1037,254165
50,31,-52,4686,1000,254173
58,16,-98,4747,966,254117
119,4,17,4717,951,254187
31,-19,-39,4744,1007,254132
79,-53,-26,4682,1050,254189
68,-88,-25,4698,1047,254268
45,-74,-37,4693,1046,254293
62,-50,-13,4731,1047,254230
53,-15,-5,4736,943,254166
60,-5,-2,4673,997,254203
78,7,45,4688,1019,254109
27,0,7,4731,1050,254193
51,-6,-20,4684,1041,254199
34,-43,0,4792,987,254114
6,4,-15,4773,1072,254157
23,38,4,4741,1030,254285
10,62,2,4714,1011,254294
18,52,9,4678,1042,254161
15,39,46,4718,1069,254208
-9,39,17,4658,997,254250
15,29,20,4797,1091,254283
-29,-3,8,4732,997,254248
49,-4,21,4684,994,254199
-70,64,-19,4665,1048,254172
-20,67,-56,4635,1014,254113
32,35,-36,4707,1006,254060
0,3,8,4691,995,254102
-12,5,22,4668,1014,254310
-13,-18,5,4709,1014,254215
-33,-43,-44,4762,1030,254155
-5,-11,-26,4680,1027,254111
-36,54,-97,4692,1028,254095
-6,90,-88,4717,1082,254075
-17,71,-72,4683,1054,254114
1,100,-98,4712,1038,254146
41,107,-97,4691,1021,254200
32,64,-84,4699,1023,254279
46,34,-3,4701,984,254232
45,42,4,4715,1040,254318
27,57,-65,4746,971,254322
66,94,-60,4745,1024,254248
83,110,-44,4716,1034,254317
96,106,-23,4673,1069,254261
113,90,-76,4695,1055,254172
135,79,-57,4705,1025,254177
110,52,-12,4741,1117,254252
102,83,-12,4711,1078,254213
108,92,-53,4753,1025,254143
118,101,-76,4789,960,254192
122,99,-15,4766,961,254251
117,83,-25,4715,953,254239
122,82,-49,4716,1005,254221
119,23,-10,4697,975,254213
102,26,31,4705,1007,254111
62,37,6,4726,1112,254202
69,35,23,4769,1046,254240
20,66,5,4696,1021,254225
38,88,46,4776,1024,254210
-17,46,0,4742,1024,254220
-5,32,-23,4711,1037,254130
-43,-22,-4,4736,969,254066
-66,-26,41,4727,1034,254094
-111,-16,-16,4747,1082,254118
-76,24,3,4721,1025,254115
-132,45,-9,4702,1043,254153
-122,76,52,4695,1065,254108
-126,106,28,4657,1026,254103
-119,104,3,4668,967,254290
-139,77,24,4700,1045,254267
-120,73,84,4686,1059,254311
-188,105,61,4667,1054,254217
-179,137,34,4700,997,254179
-176,128,25,4765,1028,254172
-173,155,50,4717,1063,254197
-176,188,26,4747,1032,254197
-160,143,3,4763,1079,254265
-142,45,5,4759,1014,254280
-132,46,43,4674,1024,254264
-175,48,17,4676,1034,254218
-154,49,26,4645,1048,254146
-149,44,-1,4660,1019,254171
-136,83,-42,4572,1123,254274
-123,74,-69,4682,1089,254172
-98,35,-20,4720,1010,254178
-97,-2,28,4740,990,254234
-100,-3,45,4691,1025,254265
-95,-24,19,4745,1021,254180
-77,21,10,4677,1036,254169
-103,27,-4,4685,1002,254103
-81,44,12,4724,1031,254209
-97,70,-40,4698,1003,254221
-73,59,-38,4693,1048,254229
-71,2,31,4712,1070,254240
-78,-7,49,4640,1017,254211
-70,29,21,4690,984,254213
-84,54,-51,4717,992,254198
-44,39,-20,4702,1063,254246
-29,62,27,4708,993,254257
-50,115,-36,4710,1015,254227
-1,96,-27,4692,1123,254216
18,-2,46,4737,977,254210
8,3,56,4627,968,254152
-3,38,17,4683,1014,254278
9,8,21,4757,1034,254202
1,29,16,4696,1105,254241
21,67,-7,4756,1097,254182
33,78,-45,4726,966,254179
42,79,-80,4731,970,254258
48,57,-9,4718,961,254267
6,3,27,4633,1041,254175
21,13,27,4680,1083,254139
2,10,21,4737,1016,254187
-23,9,100,4642,1065,254190
-37,42,91,4679,1041,254173
-28,73,26,4740,1000,254296
-22,62,-14,4729,1020,254230
-14,34,66,4714,1046,254227
-66,4,107,4709,1014,254166
-69,22,36,4690,1031,254179
-72,15,14,4736,979,254205
-98,15,87,4736,1043,254269
-120,83,101,4750,1041,254180
-90,85,48,4767,991,254133
-149,70,21,4682,989,254160
-135,49,45,4713,999,254121
-141,64,92,4728,1038,254228
-184,42,26,4713,1064,254293
-152,50,-17,4653,1033,254234
-164,37,16,4652,1080,254172
-176,36,3,4718,1105,254185
-132,53,-28,4675,1078,254141
-132,4,-1,4572,1038,254246
-151,-19,1,4683,999,254155
-132,-28,30,4739,1073,254163
-133,-33,6,4725,1068,254091
-119,6,-45,4707,1012,254227
-92,19,-37,4731,1061,254184
-93,48,-50,4628,1039,254176
-63,73,-132,4764,1019,254192
-45,0,-114,4738,1135,254218
-28,-53,-25,4691,1044,254203
-40,-23,-23,4803,1059,254256
-30,-22,-38,4798,1090,254382
-13,-47,-31,4786,1062,254264
-14,16,-2,4772,1000,254184
-4,60,22,4663,1037,254205
33,62,-15,4678,968,254199
53,46,-55,4694,1041,254119
125,25,14,4617,1044,254127
18,45,44,4690,1017,254197
69,28,54,4611,992,254095
72,-23,50,4657,961,254195
48,-12,45,4728,984,254252
59,42,38,4713,995,254140
60,68,43,4772,1075,254156
60,41,-16,4755,977,254259
81,5,23,4793,976,254290
43,-24,30,4759,1052,254250
70,-28,42,4782,1076,254184
34,-47,67,4784,1041,254215
26,-43,69,4738,992,254222
37,19,49,4668,967,254147
3,49,-1,4645,1018,254160
19,30,-38,4673,1052,254125
4,1,-43,4770,982,254243
-32,-15,-58,4767,1024,254196
-29,4,-75,4721,1016,254220
-44,-16,-66,4708,1061,254280
-43,-19,5,4627,1010,254096
-51,28,-16,4713,972,254220
-56,63,-23,4771,921,254256
-63,39,-6,4735,1033,254163
-55,-10,32,4771,986,254182
-76,-12,-23,4774,1009,254175
-108,-14,-56,4756,1017,254243
-103,-35,1,4676,944,254112
-128,-26,40,4661,989,254154
-116,28,-1,4649,1036,254140
-103,79,-35,4722,1028,254167
-95,58,-50,4731,1081,254270
-89,36,-14,4704,1000,254282
-97,32,-61,4696,1107,254259
-78,-13,-47,4646,1029,254318
-120,-38,-14,4695,1053,254222
-102,-8,7,4687,1008,254181
-111,8,-36,4669,973,254225
-80,14,-35,4686,1030,254255
-81,21,0,4647,1115,254289
-95,-1,18,4650,1132,254254
-94,-22,-16,4726,1058,254157
-49,-42,-31,4724,961,254121
-51,-81,42,4660,1014,254174
-78,-63,83,4746,1077,254207
-52,-19,17,4732,1090,254212
-32,-39,9,4684,1131,254132
-5,-54,70,4599,1076,254190
37,-31,91,4676,1038,254180
-76,-25,12,4620,969,254169
15,-67,-26,4741,1026,254161
8,-64,21,4752,1008,254242
-9,-15,71,4797,1060,254163
17,19,34,4769,962,254201
34,25,-42,4733,1067,254200
67,35,-32,4690,1104,254136
62,21,-11,4708,1132,254194
62,27,-54,4737,1025,254235
71,18,-56,4686,1008,254252
63,-3,24,4715,1018,254372
50,35,37,4710,986,254184
80,96,-47,4767,990,254137
67,79,-106,4718,1069,254253
110,79,-60,4721,1005,254220
88,75,-66,4736,1046,254212
92,38,-87,4721,997,254274
113,-7,-76,4641,960,254219
96,-16,28,4688,1013,254208
30,0,54,4775,1062,254216
43,59,-9,4678,1044,254182
42,64,-49,4698,1025,254161
57,67,20,4692,970,254131
49,55,-23,4709,1026,254190
9,70,-84,4739,1012,254273
59,13,-81,4708,1054,254238
23,-31,53,4719,1025,254136
-66,-24,63,4757,965,254166
-26,28,19,4748,1025,254231
-55,51,-5,4718,1065,254276
-76,53,16,4674,1061,254185
-66,30,19,4712,1031,254199
-96,48,-20,4756,1037,254130
-74,26,-26,4782,1056,254113
-90,-37,53,4680,1024,254110
-94,0,38,4717,988,254101
-61,38,31,4719,1038,254206
-87,23,17,4697,997,254231
-44,61,8,4671,939,254192
-48,58,-23,4670,1044,254246
-45,75,-94,4708,998,254199
-15,50,-89,4716,1006,254217
-22,-7,7,4750,1024,254196
-30,39,8,4709,1045,254235
27,75,-32,4718,1015,254312
18,62,-107,4689,1093,254294
75,89,-44,4725,1152,254216
42,80,-42,4723,1001,254199
47,65,-115,4700,990,254233
94,43,-145,4735,1029,254121
53,-10,-78,4713,1114,254120
61,-7,-55,4737,963,254107
27,52,-98,4653,1005,254172
49,32,-131,4658,1095,254176
84,74,-91,4762,1073,254155
66,99,-82,4801,1037,254241
56,72,-99,4680,969,254238
86,32,-41,4680,995,254234
64,9,-28,4668,994,254283
32,30,2,4697,1026,254217
49,60,61,4694,1058,254175
43,86,44,4673,988,254191
36,131,-15,4661,994,254213
42,137,-29,4703,996,254336
-1,102,38,4708,1034,254282
27,106,44,4716,1117,254282
-4,90,46,4734,1087,254178
-16,59,93,4773,1134,254144
9,65,101,4745,1048,254139
5,90,103,4759,1036,254225
-6,117,32,4706,986,254190
-14,163,-41,4716,1009,254190
-28,121,-49,4758,1031,254145
-4,92,39,4718,1062,254195
-36,111,7,4663,1041,254188
-30,86,3,4689,971,254208
-31,23,92,4722,1022,254237
9,88,108,4754,1073,254171
-104,123,2,4756,1018,254194
-44,59,-37,4713,987,254255
-50,23,-31,4703,984,254241
-64,63,-19,4690,960,254215
-95,-11,-4,4674,1033,254207
-56,-27,36,4697,1027,254126
-104,17,0,4782,1046,254155
-99,-1,21,4760,1068,254181
-119,-11,-16,4748,1047,254242
-99,50,-40,4742,1048,254205
-139,16,-72,4701,1046,254188
-91,-29,-10,4796,1028,254194
-145,-21,-71,4776,1037,254180
-132,17,-40,4657,1011,254299
-148,-39,41,4725,1005,254258
-151,43,25,4673,1015,254199
-158,96,-25,4791,1043,254194
-152,85,29,4733,1045,254268
-143,88,-37,4710,1079,254280
-96,86,-39,4755,1057,254077
-138,-14,-14,4758,1056,254233
-124,11,49,4696,1036,254238
-119,44,91,4734,1032,254197
-124,30,72,4692,1046,254150
-99,43,-8,4704,1037,254218
-39,78,8,4725,1012,254195
-68,87,17,4711,949,254264
-34,57,46,4738,968,254151
-40,30,29,4774,1010,254098
-44,30,4,4726,965,254154
-13,24,96,4723,1074,254135
-19,35,98,4714,1043,254227
13,143,-7,4730,1019,254201
42,125,-2,4705,1080,254193
36,23,50,4772,1061,254226
18,41,8,4642,1004,254148
36,56,-13,4670,1020,254272
-14,10,15,4788,978,254193
16,49,37,4723,994,254095
23,80,123,4773,1009,254148
-35,108,121,4682,1036,254152
-35,141,20,4736,1032,254211
-16,109,24,4677,1034,254265
-52,82,36,4684,988,254296
-41,108,71,4675,1017,254170
-102,47,115,4758,1049,254193
-71,71,88,4704,1032,254192
-61,136,81,4670,1050,254293
-112,145,30,4766,1084,254178
-56,168,23,4641,1087,254129
-118,162,-73,4709,1045,254177
-71,136,-40,4669,959,254124
-76,93,-22,4723,961,254186
-60,-4,32,4696,1054,254196
-68,-32,25,4741,1009,254239
-50,-1,-17,4729,1050,254198
-56,33,-9,4704,977,254250
-88,56,-15,4736,1014,254142
-122,44,-32,4719,1091,254154
-107,20,-67,4707,1044,254276
-103,-21,-114,4747,959,254228
-115,-98,-29,4642,1080,254194
-103,-150,33,4661,1094,254206
-115,-124,-13,4699,1079,254262
-101,-115,-20,4676,1036,254184
-124,-119,12,4722,1141,254163
-83,-76,41,4713,1098,254143
-64,-53,36,4685,1062,254149
-90,-26,-74,4673,1062,254166
-39,-5,-56,4783,1050,254210
-49,-17,35,4796,1031,254186
-44,10,24,4720,1064,254160
6,3,72,4741,1063,254206
-54,16,27,4664,1046,254081
-18,59,5,4698,1027,254131
4,41,-16,4708,1025,254172
-22,44,-52,4683,1028,254268
31,43,-32,4635,1058,254195
-12,19,50,4652,963,254198
-9,-12,0,4678,978,254177
30,36,-63,4672,1008,254256
18,-4,-60,4716,1089,254139
46,-41,-32,4697,997,254186
50,-26,-72,4726,981,254210
58,-46,-59,4692,977,254168
38,-44,-31,4653,1010,254184
75,-61,39,4644,954,254148
39,-60,7,4691,965,254221
27,8,-99,4669,1052,254118
58,6,-64,4695,1078,254162
-13,-6,15,4734,1075,254265
-5,53,-7,4746,1094,254167
-3,25,-9,4696,1085,254164
-3,-17,20,4689,1069,254151
17,29,60,4740,964,254169
-19,21,88,4808,1037,254278
10,50,61,4696,1048,254233
12,103,22,4640,1006,254216
-32,110,-1,4691,1057,254201
1,79,42,4707,948,254229
-9,59,0,4743,992,254153
-10,50,-4,4697,1073,254229
10,17,70,4659,1012,254104
-10,4,52,4711,1045,254225
-47,29,-24,4748,1019,254230
-35,11,-63,4750,1048,254223
-66,-28,-36,4768,1031,254222
-80,0,-81,4797,988,254217
-88,2,-122,4750,1017,254268
-77,-50,-60,4673,1091,254136
-57,-29,-17,4661,1030,254101
-70,32,-22,4646,1038,254113
-52,3,0,4659,1058,254266
-87,-39,3,4658,1103,254183
-53,13,8,4681,1006,254148
-104,3,-36,4731,982,254154
-66,-74,-66,4757,986,254122
-43,-120,-29,4715,975,254189
-43,-92,38,4705,975,254184
-44,-77,45,4681,1035,254273
-58,-105,56,4740,1030,254318
-53,-58,13,4722,996,254303
-67,-9,17,4646,1035,254219
-75,-21,-24,4668,1019,254239
-33,-12,-20,4727,1038,254108
-18,-20,19,4773,1036,254192
-14,-23,32,4713,1042,254250
9,14,4,4762,987,254297
16,17,-33,4692,1021,254195
-11,25,36,4688,986,254221
-21,37,31,4746,1048,254229
18,113,-39,4682,1142,254126
-6,84,-74,4734,990,254110
29,13,14,4693,933,254171
43,33,6,4727,1026,254158
64,76,-25,4722,1047,254165
36,23,-18,4701,1014,254137
83,13,59,4680,987,254195
41,63,-6,4735,1007,254175
51,99,-39,4693,1033,254126
60,73,-62,4715,1047,254235
67,61,-8,4703,1017,254303
40,74,13,4743,957,254273
18,83,-30,4740,1056,254166
7,68,-77,4720,1107,254100
7,88,-10,4725,1085,254113
-43,90,-6,4743,1025,254191
-36,112,-73,4713,1020,254151
-21,107,-73,4732,1060,254182
-37,103,-26,4648,1062,254177
-42,85,17,4684,1031,254176
-16,96,-21,4724,1063,254205
-34,94,-53,4744,1088,254194
-24,69,35,4810,1021,254235
-50,74,42,4685,1004,254160
-40,115,-53,4692,1024,254152
-36,56,-39,4694,1040,254135
-11,-13,71,4770,954,254265
-32,15,50,4789,984,254240
-35,21,6,4781,1013,254206
-31,-38,44,4683,1029,254246
-43,-31,122,4761,1063,254161
-77,0,69,4743,1063,254130
-76,0,-18,4696,970,254069
-57,-9,-14,4740,1030,254192
-48,18,52,4731,978,254237
-44,-43,32,4697,1009,254111
-27,-77,-2,4636,959,254087
-21,-41,-15,4714,981,254117
-25,-32,16,4782,1042,254245
-67,-88,-40,4749,1056,254216
2,-28,-107,4727,993,254148
-11,0,-144,4722,1072,254173
-10,-60,-32,4745,1097,254175
-6,-46,-83,4760,1049,254153
-5,-8,-148,4678,1068,254198
4,-42,-16,4711,1031,254121
-22,-16,73,4698,1001,254169
-20,63,-51,4707,1000,254149
39,59,-131,4707,1034,254081
-19,65,-51,4726,994,254144
36,106,49,4706,964,254226
31,141,-67,4729,1064,254207
100,104,-114,4663,1100,254164
86,95,-28,4628,1075,254293
68,146,-6,4665,991,254192
87,121,-42,4720,1104,254197
100,110,-91,4682,1036,254195
74,145,-67,4779,981,254190
67,139,4,4757,1042,254204
67,112,-20,4701,985,254337
104,127,-4,4694,991,254255
64,130,63,4697,957,254221
41,132,122,4628,995,254196
-8,150,50,4711,1023,254201
11,184,47,4657,1016,254225
-4,154,52,4710,1004,254122
-10,147,40,4696,1003,254149
3,170,25,4803,999,254170
17,174,36,4764,874,254199
-8,157,39,4698,1015,254128
5,147,36,4702,1022,254229
-11,188,-13,4773,1026,254198
-16,195,-14,4738,1072,254158
-39,136,-31,4751,1086,254254
-45,135,-63,4756,1002,254233
-50,132,-46,4740,1006,254256
-83,84,38,4765,1056,254111
-95,62,50,4718,1047,254138
-117,61,-14,4686,1082,254225
-110,102,-72,4729,1005,254282
-119,98,-71,4711,1054,254263
-144,70,-81,4675,1063,254204
-127,80,-103,4703,1023,254200
-117,79,-102,4772,998,254228
-112,69,-69,4665,1034,254153
-104,29,-30,4717,1005,254200
-101,-1,10,4726,1069,254156
-111,9,-47,4709,1104,254102
-64,16,-23,4752,1089,254129
-64,-42,20,4762,1041,254191
-72,-35,-12,4747,1015,254185
-35,-31,32,4666,949,254165
-44,-70,71,4733,1035,254203
-48,-98,130,4681,1032,254186
-49,-145,162,4688,1012,254247
-80,-108,103,4733,992,254226
-86,-101,89,4647,1087,254228
-54,-128,117,4670,1069,254234
-83,-98,35,4708,1045,254198
-10,-61,51,4749,1085,254227
3,-84,104,4724,1115,254167
-29,-47,150,4646,1080,254262
-20,-18,69,4638,979,254230
-34,-17,40,4690,1024,254187
-14,-14,81,4685,958,254262
-33,18,105,4638,974,254308
-50,43,56,4690,990,254140
3,63,16,4690,957,254191
2,51,10,4763,1017,254167
-8,40,56,4663,944,254175
-11,54,8,4658,943,254284
-27,41,-29,4692,993,254196
-43,55,-31,4769,1050,254162
-36,87,-3,4698,1063,254173
-65,79,-12,4696,1036,254217
-60,127,-76,4733,1036,254063
-46,108,-45,4698,994,254154
-48,44,8,4748,1029,254145
-66,61,-79,4770,1013,254198
-37,67,-96,4672,991,254174
-64,37,-80,4711,1045,254197
-65,84,-81,4737,1009,254156
-76,129,-133,4720,1043,254260
-49,123,-131,4749,970,254209
-57,110,-93,4747,1022,254204
-63,124,-14,4716,968,254216
-91,128,-61,4673,989,254193
-82,96,-63,4733,994,254283
-90,34,0,4758,948,254166
-95,53,39,4733,1016,254293
-85,84,1,4729,1019,254203
-74,66,38,4725,965,254163
-70,97,79,4738,965,254317
-66,116,130,4733,1057,254337
-87,94,96,4741,1061,254246
-102,76,52,4682,1043,254104
-48,40,111,4714,1010,254184
-116,5,103,4621,1024,254278
-101,36,33,4631,966,254201
-52,23,-2,4718,1040,254157
-66,-50,55,4792,965,254230
-63,-67,98,4679,1012,254241
-70,-47,46,4677,1049,254247
-96,-71,-20,4705,1061,254264
-59,-71,25,4695,1016,254156
-78,-87,47,4714,921,254172
-89,-38,-34,4659,1002,254202
-47,-49,-59,4700,1023,254232
-43,-116,7,4798,988,254235
-50,-115,46,4743,985,254212
-53,-128,36,4688,1043,254235
-37,-153,20,4670,1007,254237
-70,-136,-8,4732,992,254196
-72,-105,-10,4779,1008,254205
-49,-64,-29,4773,976,254195
-15,-31,-75,4645,1063,254179
-4,-55,-1,4703,1017,254236
2,-78,59,4706,1079,254203
18,-55,17,4733,1123,254179
-4,-88,-13,4719,1011,254180
10,-97,26,4665,983,254285
-25,-79,17,4705,1022,254266
-35,-49,-56,4745,977,254245
22,-25,-85,4682,1079,254207
49,-20,2,4710,1043,254242
-8,-5,-26,4725,977,254216
27,-11,-42,4720,989,254173
-10,-88,-82,4730,968,254250
35,-60,-76,4748,994,254194
32,-79,-47,4734,1049,254147
18,-83,-35,4725,1072,254143
27,9,-53,4720,1128,254192
25,31,9,4694,1035,254215
-30,7,18,4714,1013,254248
33,20,-22,4671,1036,254266
19,-10,-33,4721,1105,254358
-4,-19,30,4698,1056,254273
-29,19,22,4721,983,254176
-22,50,15,4713,985,254187
-43,74,-20,4670,1046,254189
-19,83,10,4735,1062,254193
-20,70,1,4782,920,254298
-52,76,-67,4730,984,254300
-61,54,-104,4652,998,254312
-13,29,15,4682,998,254266
-98,84,-40,4797,1054,254112
-56,123,-86,4696,1016,254088
-14,100,-22,4714,950,254212
-38,135,-10,4679,975,254072
-60,177,21,4715,1007,254192
-92,112,42,4680,1009,254182
-66,30,23,4685,991,254267
-91,15,48,4716,1039,254225
-104,20,-20,4702,1050,254207
-69,40,-49,4709,1029,254180
-60,15,-19,4709,1013,254104
-40,22,30,4698,1033,254174
-28,36,1,4674,1051,254205
-8,3,50,4693,996,254227
-27,-16,66,4752,1008,254237
-4,-12,74,4784,1021,254207
-35,-8,-18,4729,1010,254161
15,34,-50,4709,1014,254146
23,34,40,4729,984,254285
-1,26,67,4760,997,254198
46,36,2,4776,1059,254252
41,44,-16,4764,872,254263
-6,-2,13,4738,994,254246
18,-11,98,4755,1060,254242
-25,1,16,4752,1020,254160
-22,15,-64,4623,1065,254113
6,-39,30,4675,1022,254006
-38,-63,63,4687,1106,254091
-16,-21,-29,4650,1025,254137
20,-46,-46,4700,1078,254128
7,-73,-27,4728,1070,254123
27,-24,-49,4698,1075,254212
34,-22,-85,4758,1023,254256
17,1,-186,4804,973,254120
62,46,-151,4787,1017,254203
42,12,-37,4735,1046,254260
36,28,-73,4740,951,254218
67,9,-44,4771,1049,254189
79,-84,72,4774,1052,254163
46,-82,33,4673,1021,254169
54,-38,-36,4665,1001,254140
56,-30,-58,4721,1004,254167
52,22,-42,4745,1011,254160
26,74,-98,4710,997,254194
60,97,-112,4645,959,254164
59,116,-86,4719,992,254182
69,118,9,4726,1069,254255
42,100,-5,4722,1026,254281
71,143,-38,4772,1011,254237
42,207,-51,4756,1063,254123
43,267,6,4665,1083,254144
68,271,41,4696,1035,254229
47,283,-51,4742,977,254175
41,218,-43,4674,1037,254110
59,176,65,4683,1019,254195
-43,192,-18,4719,977,254201
-37,188,-21,4662,1031,254151
-63,167,4,4726,1053,254266
-57,219,32,4748,1070,254165
-56,205,51,4770,1006,254172
-70,171,44,4695,991,254288
-30,150,78,4715,1063,254190
-33,116,130,4768,1013,254134
-62,61,54,4740,987,254248
-14,64,17,4755,1032,254364
-43,57,15,4662,1095,254151
-34,49,80,4659,990,254143
-39,62,23,4687,1031,254093
-29,83,-35,4631,1066,254227
-12,28,21,4639,995,254174
-39,3,73,4687,968,254146
-92,12,-16,4742,959,254132
-46,-7,-38,4710,1009,254180
-74,8,-54,4743,1029,254199
-70,85,-21,4758,1036,254278
-67,103,-36,4675,1045,254232
-26,110,-42,4710,1074,254178
-23,63,-42,4705,1021,254192
-24,13,-28,4737,946,254082
-29,-11,-27,4674,1080,254119
-45,-1,-43,4714,1077,254137
-47,-17,-13,4718,1125,254115
-29,-8,-36,4720,1100,254169
5,16,-56,4657,1007,254190
-22,27,-30,4757,977,254138
-23,-6,41,4802,979,254248
-31,-53,69,4697,1093,254217
-45,-76,27,4722,1036,254178
-77,-88,21,4740,1068,254176
-92,-80,2,4737,1069,254098
-114,-46,-12,4679,972,254162
-141,1,-46,4737,986,254207
-116,50,-34,4716,1074,254119
-99,38,56,4753,1022,254180
-129,-12,57,4744,957,254164
-145,20,9,4767,976,254179
-105,40,12,4739,1052,254203
-118,41,79,4713,1020,254277
-126,68,44,4693,966,254302
-48,118,20,4679,1025,254293
-100,148,-3,4702,984,254181
-50,122,82,4700,1031,254155
-63,110,71,4671,1063,254165
-79,140,-29,4742,1075,254141
-80,131,-36,4743,1072,254172
-66,132,28,4719,956,254225
-87,183,15,4690,1052,254220
-54,226,-23,4689,1045,254084
-62,208,8,4677,1053,254200
-74,168,102,4686,998,254170
-57,139,104,4683,1017,254249
-83,128,32,4646,1101,254253
-53,44,7,4673,975,254241
-70,59,-76,4691,1007,254219
-74,112,-21,4752,1039,254122
-35,93,51,4772,1016,254185
-61,103,-70,4753,1016,254132
-17,69,24,4779,980,254149
-60,17,117,4795,1001,254191
-74,34,-40,4663,1003,254214
-32,2,-78,4706,1108,254256
-52,-31,-49,4711,1036,254228
-71,38,-21,4722,976,254188
-53,95,-24,4739,1021,254125
-70,91,-48,4755,1034,254248
-22,84,3,4679,1093,254231
-40,36,53,4652,1054,254195
-24,8,43,4628,953,254168
-35,-11,-14,4713,1031,254126
-13,-19,10,4735,1050,254204
2,0,59,4743,1002,254216
-1,70,51,4747,1013,254133
-17,40,-26,4738,1036,254186
40,-45,46,4737,1049,254184
0,-23,-51,4725,1006,254241
76,-9,11,4710,1018,254206
-11,-128,58,4806,1054,254156
22,-120,-22,4715,961,254191
28,-52,-122,4748,1092,254150
33,-78,-13,4743,1074,254122
23,-69,76,4749,1064,254109
22,-62,74,4721,1050,254154
13,-104,-27,4758,969,254168
65,-97,-32,4677,1058,254079
34,-114,-14,4704,1101,254087
54,-108,21,4739,1028,254182
15,-45,-47,4716,995,254168
27,37,-71,4741,1044,254220
27,73,-23,4750,1086,254266
-31,53,5,4742,1032,254203
-12,36,-37,4699,1010,254165
-17,7,-36,4722,1054,254203
-49,-33,12,4770,1017,254101
-60,-29,6,4737,1048,254226
-68,0,5,4723,1083,254213
-55,48,7,4735,1037,254182
-82,81,-3,4770,1042,254109
-87,39,20,4775,1088,254129
-56,37,19,4663,1027,254268
-96,50,-57,4701,1055,254309
-59,-13,-4,4745,1034,254257
-89,-59,41,4756,972,254180
-107,8,-22,4708,963,254185
-68,70,-16,4676,1046,254190
-93,52,34,4684,1052,254192
-99,75,41,4673,1036,254184
-79,43,-13,4787,1011,254220
-57,-8,-45,4707,996,254183
-23,-25,-19,4730,1010,254216
-47,-40,58,4700,986,254170
-52,-22,-11,4785,1009,254216
12,-1,-7,4690,1040,254197
10,-2,51,4720,971,254157
2,18,49,4745,1043,254129
56,-23,0,4693,1095,254157
12,-54,7,4714,1042,254154
43,-60,21,4748,996,254162
40,-52,2,4715,994,254242
62,-64,-39,4750,989,254272
65,-47,-61,4753,1020,254056
68,-4,1,4724,1038,254106
43,-12,20,4663,1076,254114
35,-26,-41,4702,1079,254166
67,-40,-18,4748,1036,254195
14,-60,41,4721,1025,254185
22,-51,30,4773,1061,254193
31,-36,-22,4764,1031,254155
12,-12,-122,4790,1045,254105
27,8,-44,4709,1072,254093
-4,13,-36,4691,1032,254224
-13,17,-98,4672,1107,254203
9,-45,-117,4654,1070,254304
-6,-85,-41,4686,1076,254333
-42,-45,-20,4712,1058,254276
-37,-12,-79,4705,1115,254161
-50,-25,-69,4691,999,254180
-24,-3,4,4697,1042,254235
-17,30,6,4850,1100,254210
-59,20,-88,4787,1069,254144
-14,-4,-62,4741,1049,254167
-7,-43,46,4713,1040,254175
-63,-52,-8,4764,957,254176
12,4,16,4699,1031,254206
-76,15,-68,4724,1002,254232
-45,17,34,4714,966,254261
-13,32,75,4812,1026,254217
-103,40,-146,4757,937,254186
-1,-15,15,4750,1014,254190
29,-73,210,4740,1017,254323
-143,-26,-30,4652,1099,254147
44,-36,52,4645,1095,254166
-50,-72,81,4719,979,254200
-84,35,31,4563,1041,254134
-56,16,87,4708,1088,254223
-84,19,-4,4728,1037,254134
-84,71,-133,4749,1050,254262
-57,-41,87,4708,979,254329
-155,-43,31,4731,1001,254207
-57,78,-34,4689,1126,254182
-137,18,-41,4724,1177,254238
-53,58,141,4761,1092,254090
-175,148,15,4741,1058,254194
-130,130,-69,4726,1053,254299
-61,44,22,4708,1000,254231
-143,32,50,4662,1037,254210
-122,32,2,4685,1073,254124
-87,21,39,4654,1094,254170
-147,41,5,4766,1047,254095
-64,138,67,4663,1091,254076
-102,89,-8,4660,1063,254212
-85,41,-65,4727,1033,254178
-31,52,-102,4755,1022,254181
-54,-50,-47,4707,986,254224
-52,-80,-51,4633,976,254195
-8,16,-109,4721,1015,254324
14,0,48,4747,1096,254128
-41,2,98,4682,1064,254161
5,75,-50,4650,1081,254236
42,42,-64,4767,960,254290
13,-15,1,4749,952,254219
5,-25,24,4695,965,254294
17,-40,74,4654,991,254176
-32,-13,-37,4727,1016,254200
78,64,9,4691,1020,254164
25,56,69,4736,1086,254170
3,121,-75,4676,919,254123
60,103,-177,4667,995,254143
8,-15,-89,4743,1009,254150
31,46,-45,4778,994,254132
45,73,-27,4657,1071,254310
18,14,44,4667,1038,254151
40,136,25,4745,976,254162
-29,199,17,4739,1071,254177
-4,112,95,4751,982,254272
13,116,32,4730,993,254159
-56,117,-45,4723,1010,254139
-15,37,49,4716,969,254066
-57,25,20,4694,1051,254164
-56,48,-32,4676,1041,254214
-15,37,-2,4696,1046,254175
-6,52,-13,4726,1060,254173
25,123,-6,4696,1040,254193
42,123,17,4721,1105,254174
54,68,31,4655,1038,254152
60,78,57,4665,1055,254121
22,124,43,4728,1005,254202
35,89,69,4761,1074,254168
9,101,71,4822,1068,254094
5,151,57,4775,1064,254089
-30,189,-23,4744,1039,254162
3,187,-72,4766,1000,254094
44,137,14,4732,1066,254161
-9,172,4,4703,1070,254222
13,163,-47,4649,1041,254191
44,68,-30,4687,1010,254171
22,57,-48,4788,983,254126
-10,85,-53,4749,991,254171
24,86,4,4741,1027,254193
26,129,-35,4684,1025,254156
0,137,6,4674,1001,254215
58,77,80,4726,1072,254143
36,76,26,4683,1056,254243
16,88,4,4736,1040,254297
14,90,38,4740,1019,254210
-24,88,49,4748,973,254256
-53,152,-32,4707,1016,254136
-42,106,23,4694,1057,254189
-73,32,16,4671,1025,254264
-89,1,-27,4750,991,254134
-58,17,-8,4672,1015,254227
-77,-14,-46,4701,1015,254218
-51,-15,-50,4715,1072,254226
-77,46,-144,4792,1043,254356
-82,108,-220,4738,1026,254210
-58,66,-158,4687,976,254249
-65,100,-131,4682,1050,254121
-65,127,-82,4754,1042,254230
-33,55,20,4784,1069,254256
-19,77,48,4705,1087,254208
-25,101,96,4748,1060,254151
-79,33,82,4625,1011,254153
-62,92,-65,4622,951,254298
-50,84,-102,4752,1062,254190
-130,22,-32,4756,1043,254217
-64,36,56,4760,1026,254219
-109,47,54,4763,1050,254291
-90,30,49,4735,991,254207
-107,16,41,4714,1023,254222
-91,109,-52,4755,1043,254149
-71,129,-17,4771,1055,254099
-83,74,23,4770,1022,254208
0,88,103,4725,1097,254166
-45,40,69,4678,1085,254258
-18,21,-12,4692,1059,254133
14,-13,100,4701,1085,254141
-58,28,139,4718,1028,254262
-88,113,110,4672,1013,254264
-85,91,107,4656,1014,254172
-99,67,75,4630,975,254190
-96,81,60,4673,986,254300
-127,72,-42,4759,1049,254216
-62,33,-35,4706,1023,254158
-40,-8,79,4754,1021,254135
-65,19,133,4767,1053,254135
-43,44,137,4694,1120,254210
-12,34,99,4718,1099,254324
-41,54,30,4701,1064,254199
1,33,8,4667,1031,254169
-3,0,-65,4730,1001,254185
54,9,-58,4664,957,254270
41,-42,83,4645,1010,254367
-21,-45,32,4648,1062,254277
31,39,-73,4608,1058,254206
-6,26,-75,4677,1052,254133
-43,43,-36,4620,936,254222
-2,76,-85,4708,1036,254100
-26,66,-170,4751,1161,254202
-37,40,-169,4678,1042,254171
25,16,-30,4696,968,254194
-18,18,-37,4754,997,254223
-8,57,-147,4705,938,254104
32,30,-98,4767,1039,254073
16,0,7,4720,965,254190
-30,39,-62,4700,995,254170
-3,18,-105,4681,998,254253
-2,-39,-29,4782,1038,254281
-58,-15,57,4712,1012,254206
-92,-11,47,4681,1067,254273
-79,-16,6,4703,1108,254242
-117,21,-2,4726,1025,254210
-137,19,85,4720,961,254224
-154,-14,27,4693,1059,254142
-125,-29,-47,4706,1048,254167
-145,-27,-12,4762,994,254217
-121,-46,111,4778,973,254226
-206,-50,160,4716,994,254240
-133,-26,115,4701,951,254202
-140,-15,75,4731,1041,254132
-108,-5,162,4675,1016,254203
-110,1,114,4756,1009,254237
-126,1,-40,4760,1034,254144
-92,-20,-5,4654,990,254178
-118,-26,111,4718,965,254171
-151,11,112,4721,1045,254261
-133,0,91,4703,973,254255
-129,-13,44,4732,1021,254191
-100,36,43,4740,988,254235
-105,10,-36,4802,1038,254197
-50,-21,-111,4711,1009,254091
-20,-23,-159,4747,1035,254175
17,-37,-35,4779,1098,254237
-7,-62,-11,4770,979,254215
33,-23,-67,4695,1000,254260
67,-38,-56,4731,1050,254273
46,-22,-72,4761,1029,254205
77,2,-91,4748,1041,254183
93,-26,-125,4747,999,254252
100,-50,-116,4757,997,254261
143,-36,-7,4759,1068,254264
100,-26,-22,4730,1066,254317
146,17,-47,4750,1054,254306
135,7,-40,4768,991,254270
110,46,-75,4729,1058,254202
153,70,-138,4746,1061,254236
142,-16,-187,4753,1021,254201
169,-32,-159,4751,973,254198
170,-27,-69,4705,1106,254195
131,-34,-73,4749,1104,254218
189,-38,-21,4740,988,254224
180,-74,17,4774,1009,254271
146,-83,-5,4672,928,254250
129,-48,-48,4732,941,254213
76,-64,-138,4686,992,254235
119,-82,-45,4657,1000,254174
49,-59,26,4754,985,254221
10,-32,27,4739,1047,254092
65,-63,60,4715,1064,254135
27,-105,44,4683,1049,254260
31,-65,70,4750,1013,254136
8,-47,30,4754,1045,254126
-21,-49,-5,4698,1075,254199
-16,-38,32,4695,1016,254169
-24,-53,68,4706,1008,254150
-29,-39,92,4781,1018,254165
-35,-12,119,4681,1032,254303
-46,-50,95,4697,1025,254249
-29,-41,91,4682,1010,254231
-83,18,13,4765,1048,254137
-61,-9,4,4757,1147,254201
-95,-27,-20,4666,1097,254203
-95,7,-31,4651,1068,254253
-106,15,-2,4685,1126,254151
-146,5,30,4722,1029,254185
-115,19,107,4703,1063,254211
-155,45,-2,4766,1039,254186
-146,34,-102,4682,1073,254305
-89,27,-49,4663,1008,254256
-139,70,-77,4750,978,254161
-150,72,-99,4760,998,254155
-70,48,1,4702,976,254170
-107,64,21,4676,981,254226
-86,81,27,4649,1036,254222
-82,51,-3,4728,1077,254221
-83,47,-93,4715,1083,254149
-83,56,-150,4691,1013,254181
-73,37,-98,4738,1026,254192
-73,14,-92,4754,1077,254278
-57,41,-105,4759,1080,254289
-45,22,-16,4717,1036,254231
-51,0,110,4753,980,254208
-53,32,61,4751,1040,254286
-41,9,-55,4699,1056,254252
24,-4,-101,4797,1062,254179
-31,72,-82,4787,1013,254149
-18,90,-35,4748,1021,254076
5,77,-2,4762,983,254187
37,74,21,4698,1055,254303
14,62,75,4680,1062,254219
36,79,106,4737,997,254178
-3,83,6,4703,1019,254080
14,70,-29,4708,957,254134
9,77,12,4714,1015,254193
-17,101,9,4771,1119,254349
-24,100,36,4618,1023,254210
1,46,157,4699,1051,254348
-41,62,177,4705,1047,254237
-46,84,91,4665,1084,254170
-10,17,17,4729,1073,254182
-3,5,-33,4751,1024,254223
-16,42,-17,4707,1075,254265
-23,21,60,4739,1073,254086
-49,14,79,4720,1002,254178
-34,20,105,4751,1083,254223
-40,-12,74,4722,1154,254259
-41,9,-29,4781,1001,254259
-59,30,-78,4770,1005,254122
-52,10,-2,4750,1036,254172
-95,3,-2,4688,1023,254277
-91,36,-49,4689,1005,254200
-129,21,3,4741,1058,254206
-138,13,92,4694,1019,254097
-140,28,123,4739,966,254051
-163,69,57,4696,1024,254197
-134,113,-60,4705,1057,254176
-144,95,-60,4761,1100,254198
-137,90,-42,4803,1085,254199
-150,154,-87,4787,1052,254102
-123,122,-34,4725,1118,254245
-105,110,35,4709,1050,254332
-115,133,57,4668,1042,254230
-94,139,63,4641,1100,254268
-94,93,60,4709,1052,254178
-97,92,-21,4727,968,254088
-96,106,-23,4712,1050,254111
-75,133,-3,4722,1035,254132
-89,146,27,4774,1010,254307
-77,139,90,4766,1016,254264
-67,135,97,4681,1066,254287
-44,115,90,4685,1085,254188
-50,77,18,4736,1011,254236
7,89,-12,4692,1011,254180
-23,110,-130,4681,1033,254192
37,129,-85,4721,1010,254178
43,121,-8,4816,1082,254116
47,130,45,4635,1072,254294
62,104,-6,4741,1058,254296
97,45,-58,4717,980,254329
100,13,-41,4697,969,254158
87,43,-84,4705,995,254203
79,52,-89,4731,990,254206
35,89,-106,4702,1035,254179
62,131,-48,4656,1104,254158
44,66,61,4715,1079,254146
28,41,11,4717,1005,254065
68,73,-27,4739,1057,254188
23,10,-1,4759,1049,254186
15,38,4,4742,1028,254228
26,90,-61,4763,1135,254319
16,59,-62,4783,1040,254213
4,25,6,4751,1028,254205
23,17,39,4710,1050,254283
-10,7,34,4704,1078,254209
-9,-13,54,4706,1032,254212
-16,-20,92,4781,998,254132
-31,12,92,4766,973,254202
-63,14,-8,4657,1065,254253
-45,7,-24,4715,1050,254246
-48,-1,36,4795,1002,254250
-91,-6,93,4785,1058,254269
-84,8,83,4720,1106,254291
-68,-31,71,4688,1030,254214
-75,-61,18,4716,1074,254160
-50,-45,-36,4692,984,254181
-70,-2,-136,4726,981,254161
-73,63,-159,4690,1019,254109
-62,71,-12,4696,1010,254120
-58,86,78,4778,1026,254188
-51,141,11,4694,1009,254129
-49,149,-44,4696,955,254170
-62,96,2,4777,967,254290
-65,116,-14,4737,974,254246
-88,139,-73,4682,1024,254255
-71,130,-51,4672,1018,254143
-99,141,-19,4687,1099,254261
-87,149,27,4748,1006,254173
-80,140,11,4705,994,254151
-97,124,-50,4782,1055,254190
-90,108,-65,4667,1037,254294
-96,94,-54,4739,1054,254196
-109,90,-163,4780,1029,254212
-67,89,-182,4694,1089,254113
-52,28,-50,4703,1042,254238
-49,20,26,4731,1058,254178
-25,49,29,4741,967,254121
-7,44,55,4769,1005,254273
15,18,79,4710,1037,254188
-17,3,62,4727,1098,254217
2,49,-69,4650,1060,254161
34,76,-106,4682,1014,254097
30,38,25,4674,1003,254200
42,74,104,4758,1016,254296
57,83,43,4743,1049,254242
56,28,54,4729,1054,254202
78,4,81,4733,1055,254232
67,7,33,4716,954,254245
80,8,-13,4797,1014,254175
109,61,-32,4698,1054,254160
81,118,28,4688,1015,254187
60,79,82,4727,1056,254237
97,40,84,4684,946,254258
70,-19,7,4749,976,254189
71,-57,38,4767,961,254213
45,-34,45,4642,1029,254195
21,-8,-23,4652,1044,254146
33,32,-78,4644,1084,254212
47,17,8,4680,1085,254220
-7,6,58,4782,997,254160
-16,-3,28,4758,1047,254212
-14,-63,-4,4703,1044,254278
-35,-93,36,4703,991,254256
-77,-71,-30,4684,1036,254218
-86,-72,-78,4709,996,254236
-86,-96,-141,4731,998,254200
-70,-62,-40,4693,934,254171
-145,-100,45,4693,1057,254267
-94,-101,55,4709,1022,254398
-77,-100,-37,4747,1033,254300
-74,-123,-36,4695,991,254222
-70,-91,17,4700,1024,254149
-57,-61,-34,4663,1042,254213
-80,-26,-164,4714,1028,254267
-36,26,-72,4729,1085,254307
-102,29,21,4722,1030,254276
-99,23,6,4661,1042,254261
-92,-28,-95,4679,1084,254353
-63,-47,-51,4723,1041,254234
-112,7,-75,4716,974,254136
-72,23,-76,4665,1050,254213
-44,33,-118,4768,1021,254186
-28,79,-105,4706,1043,254212
-58,83,-3,4655,963,254230
-19,80,91,4773,1028,254195
-27,43,-19,4759,975,254236
56,-1,3,4662,1049,254212
53,-49,76,4728,1038,254125
-18,15,-97,4658,1022,254177
38,-3,-145,4662,982,254160
40,-39,-23,4758,1022,254179
29,50,15,4728,998,254293
29,66,32,4692,983,254210
112,-67,76,4735,1003,254182
95,-49,49,4736,999,254288
105,5,79,4698,1051,254314
53,-58,12,4719,1121,254305
109,-63,-92,4711,1065,254188
99,-33,-14,4703,1051,254138
63,-4,92,4626,1058,254256
79,18,57,4663,980,254216
120,22,20,4678,1006,254230
71,15,13,4756,984,254202
55,38,25,4742,944,254181
56,50,-25,4715,1048,254310
69,58,-99,4764,1009,254157
61,65,-76,4761,1091,254251
32,44,65,4789,1052,254165
8,52,87,4732,1045,254156
23,20,-6,4706,1057,254250
28,-61,16,4776,1018,254183
20,-82,59,4779,1038,254284
-45,-30,-11,4716,1000,254237
-31,-21,-58,4655,1068,254199
-38,-32,-28,4679,1056,254205
-74,-10,-37,4726,1128,254216
-35,-45,-29,4656,1076,254203
-35,-141,-61,4696,1024,254253
-32,-183,-45,4796,975,254208
-25,-157,7,4842,1059,254247
-164,-109,-76,4786,1017,254314
-70,-86,-35,4710,1062,254196
-97,-23,-53,4759,995,254179
-168,59,-124,4788,1056,254295
-66,16,64,4738,1092,254265
-114,1,56,4714,984,254172
-128,76,-51,4710,1022,254142
-94,24,37,4662,1044,254213
-132,10,0,4680,997,254251
-113,135,-57,4706,995,254109
-118,116,35,4733,1048,254162
-147,97,75,4734,966,254215
-116,150,30,4660,1035,254264
-103,76,50,4779,1050,254281
-94,30,57,4770,970,254270
-138,51,-35,4721,958,254178
-110,22,-12,4703,1065,254194
-137,-5,12,4638,1016,254198
-154,94,28,4642,1053,254216
-130,70,106,4775,1030,254190
-153,13,99,4729,1019,254248
-87,6,75,4582,1017,254201
-78,-11,39,4683,1013,254189
-92,-26,65,4707,1078,254180
-64,-3,23,4682,1075,254183
-27,9,3,4668,1053,254262
-59,38,-73,4746,1037,254281
8,92,4,4668,996,254201
-18,56,13,4768,1059,254192
25,21,-4,4717,1023,254171
28,37,-52,4748,1005,254206
7,41,-42,4748,1049,254319
18,68,0,4805,940,254229
-4,130,-63,4778,948,254188
37,169,-67,4733,967,254226
-30,199,-36,4721,1041,254229
31,224,43,4759,1062,254143
2,190,25,4767,1088,254164
-12,117,-48,4723,956,254183
22,110,-60,4633,1063,254155
-19,80,-23,4728,1069,254240
-8,51,-6,4715,1049,254255
-37,110,22,4725,1041,254270
-74,135,6,4765,1067,254076
-50,122,86,4732,1064,254209
-65,63,106,4700,1004,254133
-85,32,10,4711,971,254163
-82,-8,5,4771,1084,254122
-41,-81,25,4735,1062,254188
-139,-29,67,4670,1045,254196
-140,-29,60,4697,1002,254186
-113,-31,109,4766,1041,254165
-122,-21,73,4761,1037,254230
-78,-59,79,4720,1092,254217
-100,-76,34,4715,1001,254216
-88,-69,-23,4732,1067,254234
-89,-49,-6,4702,1072,254229
-82,9,35,4651,1030,254194
-110,68,61,4694,994,254159
-122,108,58,4730,964,254152
-68,98,60,4763,1023,254122
-66,89,54,4800,1090,254193
-73,81,-12,4756,1024,254211
-74,49,-32,4697,1067,254145
-60,44,-19,4752,998,254215
-70,105,-60,4720,1026,254120
-78,160,-81,4711,1017,254168
-45,139,-3,4697,1107,254220
-34,159,0,4751,1078,254052
-37,171,-23,4710,1045,254157
-3,121,23,4743,1015,254224
-61,103,-108,4699,999,254201
-7,71,-108,4595,1054,254052
-39,87,-102,4698,1037,254155
-47,140,-88,4703,992,254145
-20,144,32,4724,1037,254268
1,104,76,4745,1020,254204
38,76,-45,4728,1059,254179
31,-5,-180,4698,1038,254192
58,-9,-137,4657,1081,254279
69,64,126,4690,1070,254174
5,40,361,4741,1055,254152
22,27,121,4703,982,254213
32,57,-464,4688,1019,254135
94,28,-411,4751,1015,254104
105,88,266,4782,958,254144
24,149,525,4733,1048,254280
34,100,25,4647,1059,254357
194,-35,-283,4754,1019,254171
42,-14,-125,4821,1044,254185
46,183,170,4723,1014,254210
52,115,181,4746,1089,254300
69,76,-55,4744,1022,254274
114,162,16,4747,983,254077
-10,50,256,4791,1003,254058
-29,42,-26,4686,1048,254141
86,55,-270,4648,1093,254190
53,-16,40,4721,1047,254260
-90,71,229,4663,1008,254245
-32,146,71,4685,1108,254213
-26,68,-196,4687,1056,254224
35,53,-135,4656,1049,254205
-47,13,115,4755,1042,254232
-102,-67,1,4697,1040,254279
-27,-103,-174,4671,995,254183
-46,-113,-27,4735,1062,254173
-110,-29,224,4733,1030,254139
-151,18,132,4691,1055,254112
-106,33,-213,4652,1072,254143
-71,25,-270,4768,1130,254111
-83,-25,-19,4726,1134,254146
-125,-55,36,4626,1087,254265
-120,-58,-153,4699,942,254269
-78,-57,-185,4736,968,254164
-108,-6,45,4747,1042,254232
-141,49,104,4726,1017,254303
-90,76,-13,4670,1050,254196
-44,63,-154,4738,1049,254144
-38,36,-65,4750,1057,254260
-15,-8,107,4734,1061,254233
-77,-52,45,4734,1025,254211
-62,2,-95,4683,1018,254136
-46,11,-42,4686,1037,254297
-81,34,55,4712,991,254334
-32,106,84,4676,989,254274
-56,65,3,4742,1047,254217
-30,30,15,4688,980,254092
-41,23,36,4733,1021,254185
-47,41,48,4744,1011,254155
-61,49,60,4673,923,254341
-103,44,115,4707,1026,254349
-71,66,200,4659,977,254360
-77,70,102,4668,1007,254282
-66,24,13,4610,1055,254168
-28,-13,13,4658,984,254195
-41,-16,-26,4697,1036,254224
-14,-22,-35,4716,990,254240
-10,10,-49,4705,1021,254225
-16,94,-44,4700,1048,254204
18,82,54,4647,1085,254263
31,100,57,4826,1183,254204
64,125,-22,4724,1043,254273
58,65,-41,4740,982,254168
56,7,-19,4740,1038,254236
44,24,-53,4796,1043,254105
9,15,-12,4759,1064,254202
-28,0,39,4669,947,254215
-29,22,3,4590,1009,254244
11,47,-74,4672,1043,254153
42,-13,-127,4716,1054,254169
68,-35,-156,4656,954,254206
97,-123,-135,4732,1016,254264
87,-140,-101,4759,1034,254298
97,-74,-60,4770,1008,254226
75,-44,36,4718,986,254204
63,-55,70,4683,1034,254180
93,-23,32,4692,1014,254267
89,24,-46,4720,985,254177
83,-15,-25,4719,1047,254104
67,-69,-18,4658,1066,254214
44,-31,-99,4652,1000,254309
21,-36,-45,4672,1014,254292
-18,-25,38,4654,933,254302
-20,7,97,4746,1007,254145
-37,32,25,4733,1021,254120
-17,56,-63,4728,1096,254099
-12,2,-89,4782,1051,254268
-4,-60,-119,4752,1033,254163
-14,-42,-152,4651,1086,254169
5,-5,-63,4690,1037,254259
-17,38,17,4662,1032,254217
9,103,81,4668,1023,254298
-6,137,9,4714,1031,254190
25,107,-54,4726,1016,254279
32,73,-40,4753,1040,254335
-1,4,16,4730,1024,254206
-20,-40,-9,4715,932,254269
-28,-46,-54,4722,975,254133
-29,-39,4,4715,1060,254213
-50,7,80,4674,1120,254169
-45,12,59,4720,1074,254257
2,42,-29,4699,1054,254203
-10,39,-95,4667,1075,254168
20,8,-40,4692,1011,254193
-4,-8,-69,4754,1078,254124
-2,18,-89,4648,1051,254214
19,45,11,4689,1031,254231
0,75,118,4683,1139,254132
0,123,92,4753,1103,254287
33,106,33,4774,1052,254245
35,46,-21,4766,1020,254223
71,35,-26,4773,1012,254183
4,18,-63,4765,1028,254195
16,18,-53,4815,999,254151
17,20,48,4741,963,254164
-42,55,109,4747,1042,254142
-21,113,72,4730,1041,254102
7,77,6,4693,1051,254183
2,50,-56,4773,1008,254183
31,63,-96,4696,1007,254193
48,50,-85,4795,1015,254108
19,20,-40,4759,1028,254059
3,54,24,4743,1039,254200
-2,44,82,4759,988,254284
4,9,38,4742,1029,254263
29,7,-40,4689,1032,254171
40,-45,-47,4654,1004,254101
-14,-89,-76,4713,1031,254138
-17,-99,-113,4788,1004,254263
-58,-109,-82,4787,1074,254281
-83,-88,11,4714,1005,254229
-130,-20,70,4725,1002,254217
-134,39,13,4725,967,254180
-74,18,1,4686,994,254118
-88,-44,2,4713,1038,254207
-90,-2,-63,4791,1074,254193
-68,-13,-69,4713,1080,254206
-104,-61,-38,4709,1047,254240
-106,-18,79,4702,1016,254235
-127,32,131,4712,1044,254209
-150,83,55,4679,1021,254230
-138,82,-5,4769,1048,254140
-121,66,21,4705,1040,254195
-165,58,-76,4708,1060,254048
-128,52,-99,4683,1032,254162
-104,-16,-6,4710,1060,254212
-234,37,113,4708,986,254283
-201,66,166,4695,1030,254269
-184,30,153,4724,1094,254219
-169,76,99,4671,1018,254159
-147,54,112,4699,1099,254078
-144,3,47,4665,1048,254117
-108,45,-58,4660,1014,254256
-136,65,-25,4678,1049,254192
-146,28,139,4691,1106,254174
-156,77,140,4671,980,254274
-107,112,78,4677,1049,254165
-100,70,48,4754,1158,254146
-50,56,90,4704,1006,254272
-61,59,61,4654,1072,254319
-88,44,-43,4649,1021,254322
-33,29,-70,4698,983,254234
-30,43,88,4702,1027,254276
-112,99,158,4674,1046,254156
-44,126,105,4657,1088,254149
-13,97,-18,4715,1065,254185
-8,115,-27,4724,1038,254185
-16,83,28,4748,989,254245
-33,43,-71,4728,1013,254236
-14,54,-134,4767,1107,254094
-34,22,45,4735,1073,254151
-74,30,124,4732,1055,254248
-44,93,43,4686,1073,254216
-28,77,-51,4776,1075,254209
-19,60,-24,4697,1037,254168
-26,63,-37,4744,1019,254199
-32,15,-103,4712,968,254076
-46,-10,-115,4676,1010,254077
-42,22,17,4682,1068,254152
-94,50,121,4703,1060,254210
-102,106,26,4710,1014,254154
-46,87,-18,4729,994,254182
-15,54,80,4782,992,254086
-68,110,-4,4706,942,254249
-17,70,-125,4698,1024,254177
-4,-10,-99,4732,983,254133
-51,53,58,4642,970,254261
-62,106,189,4722,1014,254188
-72,61,116,4698,1034,254114
-37,61,7,4630,1065,254212
-31,104,-17,4737,1063,254122
-59,106,-68,4728,1004,254210
-28,89,-147,4724,1080,254183
-8,114,-124,4732,1050,254224
-66,110,50,4735,1096,254253
-80,110,110,4706,1080,254284
-32,135,34,4772,1036,254160
-4,106,-1,4713,1001,254171
-40,94,11,4673,1073,254226
-9,117,-36,4745,1130,254224
-18,89,-135,4732,999,254255
-6,59,-90,4674,971,254132
-14,76,39,4699,956,254168
-66,82,73,4639,999,254208
-21,81,29,4609,1016,254278
10,50,23,4759,983,254268
2,32,59,4694,1023,254259
-7,54,-16,4745,980,254190
8,-9,-89,4752,1117,254232
23,-60,-54,4697,1029,254215
-20,-37,61,4730,1065,254261
-47,-12,91,4680,1008,254223
-12,-19,59,4596,1056,254272
21,-29,36,4730,1038,254242
38,10,12,4725,988,254248
41,5,-45,4688,1012,254218
62,-17,-125,4726,946,254287
75,21,-107,4708,965,254208
17,43,-30,4692,1028,254208
43,29,57,4670,1052,254199
21,42,8,4727,1067,254252
76,34,-7,4722,1023,254325
21,33,-30,4717,1060,254437
60,30,-98,4741,1060,254195
45,18,-134,4714,1054,254265
68,9,-79,4685,1030,254248
41,-25,-40,4761,1083,254114
18,10,-33,4643,1046,254268
26,8,-3,4698,999,254231
41,-42,50,4766,1017,254206
37,-51,-2,4676,970,254148
61,-40,-116,4663,1030,254267
49,-72,-128,4669,1027,254212
40,-51,-51,4709,1017,254083
-6,-24,37,4699,998,254324
-43,-3,43,4711,1031,254234
-6,10,50,4702,1012,254141
3,2,75,4769,1079,254284
-56,15,-14,4752,1020,254218
-52,39,-82,4759,1016,254149
-76,35,-85,4771,1007,254220
-90,63,-16,4703,1074,254096
-115,78,77,4694,1063,254243
-147,64,116,4690,1068,254267
-155,81,91,4686,1007,254193
-104,109,116,4717,1006,254166
-179,109,8,4749,1006,254190
-123,115,-60,4688,1086,254115
-114,90,-154,4666,1020,254097
-148,74,-102,4668,1016,254233
-94,64,88,4766,1036,254212
-171,62,60,4755,1090,254278
-117,63,28,4730,1032,254182
-61,18,163,4729,1028,254244
-114,45,67,4778,1023,254240
-78,57,-59,4711,1080,254202
-25,-26,-20,4723,1076,254162
-70,7,-12,4667,970,254179
-46,52,55,4659,1080,254351
-36,-15,101,4666,1076,254292
-13,-63,67,4765,1029,254220
33,-48,70,4792,1021,254074
31,-36,70,4726,1008,254147
27,-4,-93,4680,1006,254235
66,3,-180,4731,1055,254228
59,-8,-97,4742,1048,254180
44,50,-69,4800,1011,254134
59,43,-29,4672,1041,254204
87,-3,28,4695,960,254195
96,49,59,4699,952,254274
81,48,28,4737,1062,254327
100,11,-121,4596,1059,254197
109,16,-214,4637,1019,254151
93,34,-136,4705,1072,254087
63,19,-36,4786,1048,254179
43,-2,-28,4754,1011,254118
78,4,25,4738,1057,254097
61,-10,45,4732,1074,254205
43,-23,-18,4701,998,254243
76,-37,-99,4718,973,254236
72,-86,-85,4708,1029,254258
58,-63,-46,4779,1038,254236
18,-23,-18,4755,1079,254232
7,-42,20,4723,1083,254240
35,-76,106,4747,1024,254149
13,-87,106,4704,1002,254145
5,-38,-14,4697,971,254280
35,-20,-67,4773,1007,254190
21,-22,-77,4765,1007,254231
-9,39,-95,4734,1031,254298
-8,79,-10,4708,1040,254317
-25,65,77,4692,1038,254259
-5,42,90,4713,994,254226
10,10,85,4747,1003,254156
42,-29,11,4757,1043,254195
-39,9,-72,4766,1021,254210
-28,16,-124,4716,1015,254090
-23,33,-149,4680,1005,254106
-1,46,-148,4724,1052,254269
-26,24,-26,4691,987,254301
-19,41,81,4708,985,254215
-48,44,20,4664,982,254144
-19,-10,-18,4724,994,254241
-54,-31,-76,4773,1076,254217
-3,9,-76,4710,1114,254234
-72,-8,-102,4712,1083,254302
-86,-7,-69,4756,1027,254213
-64,10,-4,4768,1002,254295
-72,-3,79,4772,1009,254333
-70,-25,56,4757,1000,254240
-28,-44,-36,4752,1059,254078
-16,-56,-191,4701,1022,254118
50,-38,-147,4671,1001,254078
13,6,-108,4762,994,254123
-8,81,-57,4729,1040,254187
10,59,5,4729,1074,254230
20,16,114,4738,1049,254267
16,53,74,4753,1051,254129
26,31,22,4712,1003,254155
18,-28,-32,4722,1013,254150
42,38,-87,4671,1005,254166
-15,74,-113,4677,1063,254140
-4,43,-80,4668,1066,254149
38,14,19,4705,1041,254241
38,26,76,4798,989,254209
46,48,64,4706,1032,254149
75,56,14,4697,1016,254228
82,45,-23,4740,1051,254279
76,68,-5,4698,1023,254078
49,98,13,4705,924,254157
53,100,36,4670,1011,254161
64,60,141,4651,982,254209
35,37,155,4762,1008,254210
39,50,85,4710,1022,254178
24,26,37,4688,1083,254190
-7,-16,-19,4647,1103,254143
-22,-15,-39,4698,1055,254126
-72,5,-28,4725,1000,254176
-108,51,-20,4745,993,254211
-113,39,16,4710,1060,254289
-109,-4,92,4711,1049,254270
-96,5,54,4732,1013,254236
-113,3,-12,4731,1051,254192
-92,-49,-32,4729,1008,254178
-119,-3,-98,4674,1028,254253
-143,65,-112,4761,1114,254316
-156,112,-35,4692,1040,254319
-140,124,83,4691,1035,254234
-228,133,148,4783,1046,254154
-208,106,86,4730,1016,254158
-182,79,57,4709,981,254209
-168,51,41,4759,1058,254208
-216,55,-41,4735,1049,254254
-196,84,-87,4730,1078,254261
-196,96,-49,4714,1043,254192
-206,96,86,4640,1014,254219
-201,82,162,4724,985,254267
-183,68,90,4730,961,254384
-148,61,35,4741,1026,254252
-104,48,71,4757,1032,254198
-155,85,-8,4727,1047,254040
-122,146,-76,4736,960,254162
-105,116,-34,4729,987,254216
-94,86,93,4654,930,254036
-106,86,116,4677,1013,254116
-62,41,103,4721,1039,254250
-78,18,55,4734,1048,254246
-63,40,11,4707,1058,254133
-101,64,-66,4716,1054,254087
-77,115,-97,4722,1013,254111
-109,160,-14,4798,999,254161
-103,172,96,4665,1010,254277
-83,159,110,4645,1060,254157
-88,110,49,4663,1011,254201
-44,50,38,4677,980,254212
-53,34,57,4765,1047,254138
-79,78,15,4721,983,254132
-95,106,15,4671,978,254185
-101,93,41,4689,1043,254236
-69,115,104,4703,1003,254171
-94,128,83,4723,1017,254193
-80,84,66,4736,1071,254253
-60,21,49,4704,1023,254255
-76,20,-48,4745,1050,254142
-76,23,-79,4721,1016,254169
-99,20,-32,4682,1071,254123
-121,10,36,4690,1056,254103
-79,13,153,4743,1051,254199
-63,-7,161,4726,1031,254129
-55,-19,151,4772,1043,254243
-62,-84,70,4786,998,254190
-28,-78,-154,4735,1039,254226
-5,-74,-181,4720,1050,254259
-22,-85,-9,4718,1014,254212
-53,-25,115,4750,1020,254188
-49,-32,179,4682,1007,254255
-55,-34,132,4721,899,254214
-27,2,-8,4698,996,254279
-38,0,-102,4766,1042,254174
1,18,-64,4708,975,254178
-61,41,-64,4683,988,254250
-81,71,-106,4671,1030,254051
-19,50,25,4701,1060,254116
-87,51,41,4652,1045,254104
-79,114,-9,4681,1009,254272
-30,56,-2,4728,1040,254229
-39,6,4,4736,1030,254194
-43,20,52,4677,944,254191
-67,77,-13,4778,1021,254190
-80,127,-183,4757,1008,254173
-55,128,-142,4675,1079,254183
-70,130,43,4763,1034,254258
-54,144,142,4734,1048,254190
-46,77,69,4667,978,254197
41,-5,-26,4731,1045,254225
55,-3,-116,4758,1026,254335
9,39,-163,4738,1050,254295
48,66,-72,4828,1036,254201
51,82,13,4703,1096,254201
56,99,66,4706,1049,254193
87,112,115,4706,997,254254
77,106,-4,4766,974,254160
157,115,-46,4739,1128,254206
148,86,-22,4724,1086,254173
75,142,-43,4714,1029,254213
78,135,-173,4685,1048,254260
159,104,-47,4796,989,254202
75,106,0,4782,1052,254203
98,134,-20,4695,1144,254207
109,48,-56,4698,984,254208
145,33,-11,4673,956,254177
95,69,-49,4730,965,254159
77,66,-116,4744,1042,254233
75,71,-140,4754,1010,254182
33,107,-38,4752,1076,254177
10,118,74,4706,1055,254230
13,96,10,4723,1075,254257
53,37,-88,4764,1055,254140
63,-33,-30,4765,1037,254057
31,-86,5,4651,1053,254082
-21,-101,-78,4671,1031,254086
-20,-101,-100,4678,997,254252
-57,-61,-3,4744,1069,254270
-92,-24,94,4739,972,254163
-68,-27,123,4755,984,254194
-66,-81,42,4720,975,254228
-40,-114,-74,4756,1026,254146
-24,-153,-31,4668,1025,254179
-53,-142,-83,4723,1034,254133
-36,-107,-136,4711,976,254160
-22,-123,15,4770,997,254228
-46,-69,101,4713,1023,254220
-22,-10,85,4662,1069,254265
14,-72,49,4753,1019,254266
57,-100,35,4793,1004,254269
2,-60,-127,4748,1045,254168
89,-69,-114,4635,1044,254101
29,-67,-88,4859,1019,254195
-13,36,-78,4737,1018,254253
13,74,-11,4695,1009,254212
8,62,68,4729,1023,254275
7,107,65,4688,1053,254249
38,55,92,4694,1084,254196
-7,-8,-8,4716,1005,254200
27,36,-149,4660,942,254131
7,41,-123,4706,1063,254133
-11,44,34,4730,1007,254281
0,85,83,4727,1008,254205
6,66,37,4746,1050,254140
41,4,24,4689,1092,254163
33,14,-16,4707,1055,254224
16,11,-53,4700,1001,254237
65,-3,-129,4705,952,254200
-36,91,-142,4705,1053,254129
-14,92,-50,4674,1083,254140
-55,120,-49,4662,981,254374
-9,130,-26,4655,1012,254216
40,77,32,4692,1005,254193
11,41,15,4668,1039,254198
71,38,-37,4690,1065,254135
-8,44,-106,4693,1006,254189
-15,64,-140,4676,1027,254189
0,116,-64,4696,999,254203
-47,115,28,4761,1024,254174
-13,122,43,4710,1048,254216
23,127,52,4743,1024,254168
10,21,42,4698,954,254310
73,-6,69,4730,999,254274
-14,-13,-61,4739,1049,254220
54,-40,-5,4792,1010,254331
-21,-50,-23,4705,983,254317
3,-20,70,4706,1036,254229
-52,-3,112,4712,1072,254237
-44,-62,120,4665,1049,254253
14,-127,106,4737,910,254175
-64,-161,-119,4798,938,254231
4,-179,-99,4759,1001,254252
-74,-180,-27,4751,1031,254230
-75,-117,-44,4648,1002,254165
-118,-80,14,4688,1025,254214
-135,-109,-31,4752,1088,254169
-54,-100,21,4691,1051,254177
-69,-109,58,4672,1034,254243
-106,-115,-92,4646,1057,254236
-51,-108,-114,4697,1028,254088
-112,-87,-81,4775,1067,254198
-119,-16,-40,4751,1019,254167
-119,-3,44,4743,1060,254255
-99,-19,61,4735,1050,254353
-69,-21,68,4668,1086,254201
-69,-30,14,4661,1024,254165
-55,-29,-82,4711,948,254208
-33,-24,-55,4754,1024,254146
-52,-17,-12,4711,1021,254142
-43,47,-35,4690,1005,254316
-18,85,17,4810,1064,254252
-20,70,91,4747,1031,254310
45,27,113,4732,1058,254319
64,-24,48,4772,1055,254233
54,-50,-59,4791,1007,254134
88,-44,-31,4712,976,254206
60,-49,52,4713,994,254130
26,32,-12,4704,1086,254133
69,107,-20,4763,1097,254138
40,102,63,4778,996,254253
63,128,62,4750,1037,254185
65,130,-54,4716,1039,254115
106,84,-103,4792,1054,254109
49,88,-149,4759,1067,254128
36,119,-109,4740,981,254221
32,157,-75,4736,1054,254204
-3,239,-49,4760,1032,254188
-20,249,10,4727,1025,254111
12,236,41,4606,1001,254111
-15,208,-105,4667,972,254136
45,179,-109,4693,1017,254212
-26,147,-82,4732,1011,254158
-45,155,-34,4777,1051,254088
-70,146,-22,4709,1049,254195
-97,170,-12,4738,1038,254203
-93,167,31,4661,1055,254174
-73,84,100,4713,997,254194
-61,29,30,4718,962,254186
-57,34,-52,4721,1022,254172
-67,1,-57,4694,987,254231
-94,-16,48,4676,1052,254316
-114,17,44,4712,1023,254299
-130,37,83,4750,1003,254277
-93,-42,195,4805,986,254231
-86,-20,135,4731,1043,254170
-131,18,57,4723,1066,254287
-81,-83,29,4744,1094,254167
-108,-97,-1,4712,1036,254287
-84,-31,15,4713,1007,254243
-166,-36,40,4707,1054,254234
-167,18,56,4661,1007,254221
-131,76,174,4649,1071,254225
-179,45,212,4688,1028,254243
-125,22,132,4745,1027,254215
-98,-9,53,4734,1009,254221
-134,-7,21,4741,1033,254222
-97,30,70,4792,1009,254191
-134,14,52,4689,974,254226
-139,30,50,4715,980,254147
-143,39,82,4726,988,254040
-140,5,112,4728,983,254027
-111,-7,3,4761,924,254231
-95,-53,-63,4709,952,254138
-108,-67,-72,4717,1036,254225
-118,-8,-91,4731,983,254245
-124,30,-51,4741,1070,254250
-180,15,62,4722,1068,254256
-146,16,131,4672,1059,254298
-143,34,83,4637,1070,254226
-110,-7,29,4696,1074,254121
-135,0,20,4706,1080,254196
-128,22,-19,4661,1018,254217
-125,67,-102,4719,1022,254167
-132,118,-87,4737,989,254121
-140,161,-9,4665,1066,254019
-86,172,97,4683,1087,254213
-72,158,24,4634,1066,254170
-6,151,-46,4647,1013,254219
5,130,14,4745,1005,254251
-38,114,43,4738,1003,254175
-21,161,9,4708,1012,254156
-45,194,-29,4643,985,254221
-90,200,62,4684,1061,254135
-80,206,138,4698,1133,254286
-105,207,49,4696,1066,254174
-70,136,-12,4673,1043,254241
-67,53,-10,4749,1027,254224
-85,8,-22,4715,1068,254209
-105,-7,-46,4696,1018,254133
-111,31,-36,4689,966,254115
-121,61,72,4668,1001,254116
-123,76,171,4725,1016,254210
-74,64,88,4683,977,254098
-42,71,24,4681,986,254124
-46,23,29,4762,1034,254231
-2,23,80,4708,1041,254302
-39,22,51,4718,1135,254271
-31,33,75,4698,1090,254126
-54,57,117,4729,1012,254145
-54,66,135,4677,1035,254229
-43,42,41,4687,1057,254274
2,27,-14,4658,1019,254223
-15,-27,-57,4703,1011,254226
14,-47,-82,4705,1071,254168
-10,-43,-130,4754,1136,254242
6,-47,-106,4693,1006,254227
12,-18,-56,4743,1013,254245
36,-14,33,4768,984,254295
53,-14,-29,4697,993,254211
78,-28,-123,4694,995,254167
121,-56,-115,4718,999,254238
83,-50,-134,4740,1033,254269
62,-1,-179,4691,1005,254291
69,-18,-109,4676,1017,254205
39,0,27,4711,928,254165
27,52,69,4671,941,254132
39,27,36,4693,989,254198
80,-5,-34,4728,1026,254210
35,6,-69,4704,954,254229
31,2,-70,4742,974,254086
42,19,-100,4650,1052,254185
36,41,-67,4699,1015,254289
20,72,37,4738,1011,254144
32,137,78,4735,1019,254232
63,169,43,4754,1033,254271
83,131,9,4753,937,254342
101,116,-26,4699,1011,254097
105,114,-65,4773,1092,254174
60,95,-113,4747,1071,254176
56,110,-88,4712,996,254230
39,101,12,4731,1015,254229
13,119,33,4702,1057,254232
49,140,-50,4692,1048,254218
54,73,-50,4680,1071,254155
78,41,-22,4697,1071,254141
70,79,-113,4706,1068,254210
42,84,-102,4678,1115,254354
52,82,-47,4684,1055,254165
37,100,24,4682,1115,254233
9,100,41,4633,1055,254231
47,101,-37,4636,993,254181
58,55,-47,4737,1019,254168
80,3,-21,4684,992,254032
38,14,-87,4610,1042,254188
62,-3,-127,4621,1033,254306
15,-23,-64,4683,1032,254347
-19,-7,35,4754,982,254278
-45,-17,34,4802,1001,254182
-22,-23,-38,4733,1084,254151
6,-40,-88,4779,1037,254132
13,-80,-54,4775,1035,254259
22,-106,-75,4763,998,254270
51,-73,-119,4704,1078,254161
-24,-21,-70,4758,1073,254176
-36,-7,57,4697,1019,254197
-50,10,89,4728,1016,254198
-13,1,41,4766,1048,254191
16,-51,16,4806,1074,254168
51,-65,43,4726,1063,254318
31,-65,-63,4688,1051,254189
27,-64,-85,4655,996,254159
58,-69,42,4704,1036,254242
13,-19,140,4751,971,254342
-15,2,89,4692,1037,254199
25,-6,38,4718,1017,254130
10,-2,-15,4679,1017,254188
18,15,-8,4751,1070,254301
38,-20,-78,4755,984,254381
-5,6,-111,4699,986,254214
46,-5,-8,4692,958,254056
-3,-3,94,4751,1052,254166
-5,39,87,4742,1077,254144
24,42,37,4774,1010,254132
17,43,-1,4721,995,254166
43,61,-8,4687,1027,254198
5,37,-52,4672,1011,254234
-20,44,-68,4717,982,254078
-42,45,-22,4709,966,254086
-67,59,84,4677,1046,254216
-83,79,112,4677,1072,254048
-81,78,46,4671,980,254187
-64,54,-19,4734,949,254165
-50,41,-24,4753,977,254191
-86,70,-85,4687,1075,254194
-69,51,-103,4623,966,254153
-94,46,-92,4695,1017,254211
-115,117,-7,4744,1016,254211
-136,118,70,4652,1031,254187
-127,84,35,4664,1033,254069
-79,44,-15,4688,1035,254149
-97,26,-48,4790,1063,254183
-91,46,-108,4727,992,254290
-92,30,-80,4756,1020,254386
-124,23,-24,4761,1044,254261
-95,72,72,4748,1020,254099
-146,62,121,4751,1023,254276
-119,49,24,4709,971,254149
-37,23,-11,4699,972,254259
-61,-21,17,4768,940,254162
-59,6,-56,4704,966,254273
-29,-43,-71,4680,1004,254203
-56,-99,-29,4745,1032,254172
-58,-60,67,4887,1051,254187
-66,-27,146,4841,1058,254219
-88,-34,56,4762,1060,254254
-1,-27,-28,4725,1046,254167
-17,-46,-42,4698,1024,254205
-35,-19,-79,4733,1036,254203
-45,-28,-101,4762,1051,254244
-21,-71,-7,4733,996,254325
-71,-26,71,4703,1012,254302
-46,34,125,4739,1007,254219
-75,-13,95,4675,1020,254291
13,-39,-5,4703,991,254162
21,-28,-63,4753,1059,254234
10,-31,-106,4685,1083,254151
18,-17,-98,4730,1021,254210
25,-10,10,4716,1044,254251
-23,-17,55,4730,1045,254261
55,-4,88,4809,1098,254176
3,31,66,4730,1057,254212
26,-20,44,4704,1032,254312
54,-29,-8,4690,1012,254311
46,12,-79,4703,1053,254243
12,25,-100,4719,1026,254240
11,31,-22,4703,1053,254240
-38,34,52,4714,1040,254155
-49,83,59,4731,1068,254236
-25,74,57,4721,1064,254267
16,42,34,4699,1061,254240
7,44,-72,4732,1009,254250
50,28,-91,4790,1072,254145
16,32,-75,4743,1112,254217
26,61,33,4710,1055,254234
-31,34,81,4660,1036,254242
-30,90,66,4662,1012,254198
-8,108,30,4689,1015,254158
-23,83,59,4643,994,254229
-21,114,-51,4719,990,254374
0,138,-135,4776,1039,254297
-45,77,-90,4736,963,254250
-58,112,-6,4697,1004,254273
-84,138,91,4700,1002,254235
-107,99,128,4700,1009,254238
-82,88,92,4700,1029,254240
-90,79,8,4666,959,254191
-36,51,-74,4732,1000,254104
-113,68,-127,4775,1005,254098
-99,30,-114,4718,1164,254201
-108,40,-54,4675,1075,254123
-152,49,-30,4696,1046,254162
-120,42,41,4713,1121,254307
-120,-1,44,4703,1061,254288
-104,-12,-12,4721,1018,254242
-63,-16,-60,4771,1060,254140
-74,-46,-84,4767,1070,254252
-52,-60,11,4664,1033,254247
-63,-36,66,4752,1078,254292
-84,-49,126,4810,1083,254229
-79,-58,164,4695,1137,254191
-52,-34,134,4671,921,254205
-43,-25,86,4675,990,254095
-9,-13,12,4720,1013,254156
-21,33,-115,4669,996,254273
-25,-7,-73,4703,1044,254175
-36,3,-1,4638,1080,254174
-33,73,63,4672,1034,254226
-74,66,61,4652,1049,254234
-23,33,88,4715,1066,254106
-30,37,24,4688,1022,254185
-22,77,-68,4720,1089,254229
-68,61,-121,4711,1003,254187
-41,32,-91,4735,926,254249
-82,21,-10,4769,939,254094
-122,17,45,4677,1022,254190
-108,23,99,4680,1039,254172
-120,-5,114,4740,950,254335
-121,17,71,4659,990,254291
-117,52,25,4681,934,254170
-113,83,-7,4676,996,254176
-108,112,-22,4653,1042,254249
-119,61,48,4684,994,254264
-116,73,106,4661,1051,254235
-98,73,168,4687,1036,254243
-90,2,208,4724,1028,254250
-75,-9,93,4762,1052,254142
-57,23,-62,4733,1087,254122
-37,44,-85,4637,1036,254148
-64,77,-15,4647,1023,254179
-97,107,3,4634,1096,254167
-97,151,19,4657,1104,254275
-106,140,50,4716,1096,254119
-72,106,141,4711,1066,254143
-85,82,91,4735,1064,254181
-63,103,-100,4723,1001,254213
-53,101,-147,4730,995,254183
-74,103,-14,4720,1009,254257
-89,127,-16,4670,1001,254253
-144,134,-7,4701,1047,254246
-84,92,34,4754,1047,254266
-84,85,115,4709,964,254176
-80,99,40,4670,1051,254240
-67,78,-98,4670,974,254178
-45,53,-105,4709,1073,254140
-84,46,-25,4739,1013,254125
-92,46,16,4781,964,254132
-66,56,20,4733,924,254357
-78,4,89,4755,1041,254175
-52,-10,155,4692,1058,254224
-71,6,9,4706,1081,254324
-11,-20,-126,4691,965,254137
-27,-53,-159,4626,1016,254169
-56,-13,-128,4723,996,254130
-54,19,-103,4625,991,254282
-47,-7,-40,4667,938,254174
-35,-42,90,4698,980,254314
-23,-15,138,4685,1088,254215
-9,-16,30,4673,1019,254132
23,4,-27,4741,1014,254165
0,48,-100,4777,969,254189
37,84,-28,4694,1120,254087
-25,61,2,4692,1071,254090
48,88,51,4678,1001,254110
20,29,171,4723,1023,254287
29,13,188,4714,981,254167
46,52,32,4650,1062,254270
65,37,-48,4674,1080,254236
69,30,-81,4677,969,254155
93,41,-90,4778,997,254267
97,7,-78,4781,1086,254223
82,-14,-15,4727,1015,254177
71,-32,73,4708,923,254207
63,-83,116,4637,969,254233
73,-67,-27,4708,980,254178
96,-20,-114,4739,1023,254160
71,-13,-85,4821,1074,254234
41,38,-112,4699,969,254185
31,66,-145,4712,1034,254161
28,45,-82,4804,1069,254198
36,10,13,4718,1037,254175
58,-15,48,4682,1064,254254
47,0,-42,4745,1048,254113
57,90,-144,4747,947,254071
42,103,-174,4741,1020,254153
8,110,-157,4690,1074,254248
26,171,-147,4640,1065,254330
-1,170,-61,4702,1044,254231
19,126,100,4676,1014,254223
20,129,90,4733,956,254271
29,131,-20,4723,985,254087
71,90,-47,4729,943,254114
84,103,-71,4720,1004,254166
98,118,-82,4682,1027,254191
58,97,-61,4743,975,254194
54,88,-21,4735,1035,254170
73,39,105,4725,1029,254175
58,-40,96,4647,965,254197
73,-44,-36,4647,962,254231
123,-41,-60,4769,1009,254230
83,-13,-105,4663,1026,254262
77,33,-158,4658,1009,254255
98,24,-114,4689,1046,254324
48,21,-4,4751,1044,254136
46,28,157,4746,1036,254167
48,-16,140,4696,1071,254258
81,-31,-14,4733,1033,254139
91,-35,-74,4747,1006,254180
62,-29,-70,4723,1045,254121
56,28,-119,4668,978,254108
39,55,-94,4708,1031,254130
18,57,-8,4720,983,254135
7,61,122,4724,970,254210
0,56,106,4642,1044,254218
22,58,24,4629,999,254189
14,40,-62,4686,1013,254209
41,65,-56,4691,1021,254245
16,74,-82,4635,1030,254131
18,77,-78,4679,922,254171
29,26,26,4762,1017,254090
17,-16,156,4704,998,254138
-9,-34,93,4664,962,254146
18,-65,25,4682,1001,254190
-14,-72,-41,4737,1019,254231
-43,-40,-136,4761,1067,254165
-30,5,-182,4718,1070,254180
-23,-11,-167,4702,1107,254074
-34,-11,-58,4722,1069,254231
-37,-37,86,4712,1045,254203
-55,-89,107,4693,1028,254278
1,-82,-2,4660,1048,254251
16,-126,-83,4709,1014,254254
16,-89,-85,4737,986,254285
-24,-9,-169,4729,944,254210
-27,52,-143,4698,985,254157
-50,43,-45,4733,1031,254086
-68,56,115,4704,1016,254076
-79,58,112,4683,1098,254149
-75,35,35,4698,1035,254093
-69,26,-17,4681,969,254199
-80,64,-10,4689,1058,254138
-139,115,-99,4693,1064,254224
-128,142,-103,4679,1059,254271
-120,109,63,4723,1033,254158
-171,97,178,4696,1009,254265
-106,84,174,4683,1076,254297
-180,61,55,4698,1039,254215
-100,43,56,4688,1057,254231
-141,63,-6,4718,1114,254275
-109,98,-25,4737,999,254213
-141,89,-71,4673,990,254256
-100,103,56,4701,1099,254258
-166,21,183,4806,1017,254245
-147,3,156,4747,1009,254166
-122,-25,68,4756,1041,254192
-79,-68,61,4795,1027,254227
-106,-26,-47,4726,1075,254241
-88,20,-107,4703,1078,254284
-63,30,-101,4745,1055,254149
-80,30,4,4727,1049,254142
-68,25,136,4719,994,254157
-73,-3,133,4660,1022,254249
-54,-30,42,4681,1053,254301
-32,-6,4,4812,1003,254174
-53,41,-38,4726,1010,254207
-65,108,-149,4663,1011,254263
-28,106,-144,4667,1114,254182
-77,70,-27,4741,1015,254232
-68,70,74,4671,1087,254222
-57,-5,90,4663,1043,254239
-51,-59,46,4696,987,254220
-2,-31,19,4663,1021,254300
-72,-7,-25,4734,1047,254238
-81,22,-129,4747,1071,254099
-46,82,-134,4735,1062,254161
-66,83,20,4695,1037,254155
-76,41,157,4740,1016,254185
-44,-14,157,4706,1072,254150
-46,-73,39,4746,1053,254190
8,-100,23,4758,1049,254141
-31,-75,14,4734,1099,254179
-69,-33,-53,4718,1075,254147
-56,-26,-103,4750,1068,254212
-23,-45,21,4763,1020,254189
-87,-39,104,4817,995,254222
-64,-26,176,4780,970,254221
-56,-70,91,4718,1052,254292
-18,-55,20,4707,1081,254154
-41,3,4,4699,1048,254224
-52,74,-25,4735,1014,254167
-68,114,-56,4723,1017,254060
-55,109,64,4661,1037,254034
-98,121,126,4654,993,254181
-64,101,124,4645,1104,254225
-37,31,128,4687,1020,254199
-36,45,147,4661,990,254143
-74,93,41,4674,1023,254135
-59,112,-103,4686,1043,254239
-85,118,-143,4740,985,254218
-108,109,36,4767,953,254232
-130,87,165,4669,992,254277
-139,41,44,4644,986,254212
-77,-30,1,4746,1005,254125
-92,-69,57,4784,1090,254231
-118,-12,7,4774,1094,254218
-135,35,-194,4727,1005,254242
-35,-16,-149,4685,986,254159
-113,-19,-8,4745,903,254109
-122,53,74,4736,964,254214
-103,15,57,4653,968,254231
-94,-45,-8,4660,991,254161
-41,10,23,4700,1022,254142
-108,40,-34,4729,952,254247
-75,81,-117,4571,1061,254096
-73,129,-138,4706,1020,254136
-87,109,-32,4709,1037,254190
-90,81,37,4740,1054,254217
-67,62,19,4671,1074,254217
-64,39,3,4718,1062,254175
-43,12,24,4719,1043,254148
-43,50,-30,4711,1031,254136
-30,97,-100,4756,1075,254274
-28,92,-81,4657,1014,254276
-31,97,13,4655,1033,254289
-35,85,67,4749,1007,254201
-18,16,96,4724,1002,254231
13,-34,123,4740,1063,254188
0,-38,62,4787,1093,254254
20,-51,26,4751,1004,254303
17,-39,-59,4775,974,254218
15,-8,-43,4685,1064,254228
-23,-8,23,4628,965,254251
-20,3,56,4728,949,254324
-35,-30,33,4751,973,254258
23,-86,58,4728,946,254158
27,-77,21,4758,980,254214
19,-25,-35,4645,1001,254290
-15,9,-100,4657,1033,254188
8,68,-57,4706,994,254161
-13,68,64,4762,1097,254169
-35,81,82,4680,1026,254178
-17,58,46,4682,1030,254159
5,15,39,4759,1001,254185
3,30,46,4746,1015,254199
-3,79,-39,4707,1058,254197
-9,132,-140,4699,1118,254155
20,154,-104,4622,1094,254213
-17,174,-19,4706,1016,254150
-32,154,7,4798,1027,254123
10,73,35,4706,969,254115
15,5,39,4707,1086,254162
21,9,41,4739,978,254267
24,9,-28,4724,974,254274
13,12,-125,4773,1065,254156
39,48,-20,4719,1050,254101
11,90,48,4707,991,254153
-30,99,44,4618,1002,254196
-12,46,-9,4770,1057,254161
46,-13,43,4741,1035,254261
-6,-31,39,4720,1029,254212
-28,37,-107,4692,1021,254186
4,55,-171,4727,1059,254155
-1,56,-104,4754,1027,254161
-37,108,-6,4767,985,254285
-43,168,42,4761,1066,254295
-31,117,67,4712,969,254186
-1,79,74,4783,986,254167
-22,98,26,4731,999,254230
-19,148,-33,4747,1080,254241
-37,147,-120,4740,1088,254161
3,150,-73,4751,1077,254140
-49,171,-56,4771,1077,254215
-15,161,54,4757,1029,254255
-39,56,85,4742,1016,254170
-25,9,48,4701,938,254198
-3,-27,-25,4690,1033,254143
-13,-48,-82,4708,1065,254226
-28,-36,-117,4753,1057,254234
2,-23,-47,4744,1085,254215
-20,-21,-54,4662,958,254272
-12,-20,-75,4627,1031,254207
15,-58,-2,4705,1036,254197
22,-117,90,4690,918,254120
-1,-109,44,4767,1011,254229
22,-67,-61,4735,1059,254189
10,-84,-109,4705,1040,254105
28,-51,-30,4708,1006,254103
7,16,-30,4755,1036,254247
7,62,-53,4733,1025,254225
60,8,35,4692,1038,254173
69,-20,52,4731,982,254211
84,21,-64,4719,1008,254219
93,35,-130,4667,987,254188
73,45,-77,4630,1043,254196
22,143,-64,4680,1085,254180
1,149,-60,4686,1064,254252
25,94,-18,4743,1013,254190
27,72,-1,4709,961,254172
25,24,63,4673,966,254281
19,-40,-6,4713,964,254257
69,-55,-49,4717,970,254251
22,-35,-56,4735,1022,254202
49,0,1,4686,1025,254113
54,0,22,4809,1035,254162
31,-36,40,4659,1087,254324
54,-39,92,4709,1023,254228
55,-52,93,4703,994,254197
48,-76,-7,4698,944,254157
56,-48,-91,4727,1020,254156
37,-22,-109,4681,1016,254135
45,16,-49,4744,982,254129
16,78,-54,4717,1000,254153
6,112,-42,4758,1028,254219
45,76,83,4756,1024,254332
22,63,48,4727,992,254240
