Vx,Vy,Vz,Ax,Ay,Az
-151,94,184,-126,2936,255028
-156,68,189,-174,2888,254996
-176,43,235,-232,2929,255069
-176,28,263,-246,2981,254972
-198,48,259,-201,2928,254964
-208,63,188,-183,2942,254950
-175,49,146,-193,2899,254997
-170,35,19,-218,2881,254999
-161,16,30,-80,2828,255004
-128,-22,-2,-140,2853,254998
-144,-18,27,-84,2886,254943
-135,5,112,-172,2868,254892
-143,21,115,-139,2942,254870
-166,35,103,-221,2881,255053
-117,26,68,-262,2927,255031
-140,-12,21,-212,2921,254941
-141,-40,46,-199,2873,255070
-125,-61,38,-247,2863,255045
-141,-84,106,-159,2871,255008
-144,-35,190,-178,2876,255078
-146,6,184,-167,2865,255000
-146,70,173,-190,2856,255050
-136,50,171,-153,2896,255094
-135,47,119,-194,2852,255129
-124,64,165,-212,2905,255074
-113,11,158,-187,2926,255028
-110,11,253,-240,2971,254922
-97,35,323,-225,2917,255052
-76,97,240,-208,2872,255074
-61,129,212,-146,2865,254967
-50,137,159,-141,2946,254986
-51,160,72,-192,2901,255040
-56,110,58,-116,2882,255025
-42,68,54,-192,2785,255028
-24,31,118,-194,2849,254989
-25,7,143,-146,2905,254961
-41,28,121,-115,2949,254962
-41,50,121,-154,2998,255017
2,63,77,-174,2933,254942
-11,39,99,-101,2898,254887
-16,27,81,-182,2874,255037
-50,-24,154,-174,2939,255099
-51,-51,225,-224,2918,254981
-56,-21,307,-189,2876,254935
-60,17,251,-199,2851,254910
-59,62,302,-192,2837,255001
-37,60,212,-195,2842,255075
-45,75,164,-184,2925,255022
-36,52,114,-189,2932,254957
-60,56,158,-236,2884,255001
-77,39,232,-180,2857,254918
-99,21,274,-118,2907,255005
-96,56,241,-196,2968,255111
-102,81,223,-228,2907,255014
-76,92,154,-258,2936,254880
-66,106,88,-213,2938,255023
-50,89,10,-167,2815,255064
-70,48,50,-181,2825,254934
-85,30,150,-181,2843,255007
-102,54,185,-183,2894,254989
-131,41,216,-244,2971,254921
-158,97,240,-211,2913,254950
-127,66,183,-184,2949,255015
-125,52,118,-162,2898,254933
-108,34,94,-263,2864,254944
-93,2,118,-216,2905,254977
-120,-10,172,-193,2891,255143
-134,-17,203,-269,2925,255115
-143,-10,145,-181,2971,254930
-155,-9,164,-208,2944,254875
-160,17,83,-185,2949,255003
-179,19,19,-176,2890,255068
-160,-3,-3,-202,2860,255095
-146,-25,24,-140,2902,255056
-147,-33,95,-149,3005,254968
-166,-7,165,-271,2993,254915
-168,-12,124,-257,2904,254979
-157,25,143,-200,2957,254970
-152,25,82,-178,2924,255076
-159,9,23,-171,2878,255024
-153,4,3,-208,2910,255012
-139,-32,17,-150,2863,254920
-135,-28,102,-239,2833,254984
-133,-13,214,-216,2968,255071
-112,43,174,-153,2946,255111
-105,61,226,-56,2931,255058
-83,79,206,-138,2911,255021
-89,89,150,-218,2869,255003
-105,66,148,-243,2945,255004
-88,32,177,-220,2906,255036
-111,29,297,-119,2907,255010
-105,68,294,-227,2877,255074
-101,115,319,-283,2858,255004
-74,147,303,-206,2915,254967
-70,189,271,-265,2877,255019
-55,176,178,-218,2904,254956
-28,156,170,-213,2879,254982
-39,85,181,-237,2914,255032
-79,64,256,-181,2934,255000
-91,64,310,-210,2847,254906
-111,84,290,-173,2908,254968
-125,104,238,-150,2898,255097
-108,143,214,-156,2925,255009
-127,157,44,-153,2917,254977
-140,110,21,-167,2945,254987
-106,81,10,-187,2865,255026
-132,44,85,-204,2897,255072
-137,-6,126,-215,2895,255131
-131,14,121,-237,2866,255062
-132,32,106,-185,2904,254932
-121,48,58,-240,2839,254992
-126,38,-13,-224,2908,255055
-87,37,-25,-167,2902,255008
-54,-16,7,-173,2933,255043
-80,1,110,-176,2935,254947
-82,34,163,-130,2941,255134
-96,39,194,-191,2931,255176
-106,105,228,-209,2917,255036
-109,133,212,-200,2919,255027
-89,111,101,-144,2900,254924
-58,90,118,-159,2869,255003
-53,31,136,-111,2828,254962
-79,50,188,-189,2769,254955
-92,54,218,-278,2808,254977
-101,90,212,-234,2841,255095
-105,126,201,-195,2833,255044
-113,131,150,-291,2880,255010
-91,139,38,-186,2897,255006
-66,142,48,-162,2833,255040
-52,130,49,-188,2830,255063
-81,122,127,-239,2892,254973
-91,123,165,-174,2919,255047
-110,145,151,-96,2929,255084
-123,204,149,-193,2901,254989
-110,205,92,-114,2961,254975
-118,184,-6,-112,2934,254943
-126,154,18,-118,2935,254918
-106,115,41,-180,2853,254936
-130,92,148,-205,2907,255022
-128,84,207,-225,2876,255005
-137,113,268,-214,2775,255054
-138,144,278,-226,2896,255018
-121,197,292,-142,2856,255023
-113,210,143,-155,2947,255096
-131,164,164,-136,2865,255032
-140,117,186,-135,2892,255086
-148,75,247,-110,2877,255054
-143,43,251,-212,2846,255028
-143,83,288,-186,2822,254994
-124,89,252,-168,2845,255046
-141,109,247,-214,2881,255004
-137,106,143,-194,2927,255137
-142,93,176,-187,2900,254992
-151,53,261,-223,2876,255058
-179,54,318,-144,2860,255086
-189,26,363,-148,2804,255076
-201,55,427,-197,2862,255048
-210,113,387,-172,2891,255058
-210,144,296,-186,2944,255075
-209,131,184,-210,2981,254993
-218,75,139,-169,2887,255005
-217,50,122,-183,2881,255010
-265,23,129,-156,2888,254993
-279,30,198,-165,2911,254992
-281,72,179,-160,2851,254985
-298,119,137,-207,2891,254991
-276,132,75,-150,2981,255052
-266,113,5,-99,2895,254985
-232,104,-49,-183,2866,255042
-259,39,-24,-130,2829,255112
-299,23,31,-178,2860,255081
-304,24,67,-172,2864,254945
-331,54,72,-232,2903,254980
-337,143,59,-243,2974,254957
-310,160,21,-230,2872,255060
-265,170,-73,-156,2792,255009
-206,142,-114,-216,2904,255007
-222,130,-28,-254,2915,254994
-206,99,-1,-222,2911,255066
-215,87,46,-196,2875,255006
-225,95,103,-206,2892,254947
-214,157,154,-219,2922,254927
-206,179,117,-174,2986,255059
-197,155,93,-182,2894,255008
-155,135,119,-153,2951,254931
-155,78,154,-214,2995,254889
-151,62,229,-241,2899,254983
-146,65,288,-189,2849,255003
-153,74,347,-125,2832,255090
-164,115,378,-132,2900,255077
-157,132,335,-116,2926,255069
-142,131,254,-209,2916,254983
-104,123,268,-210,2934,254945
-89,119,318,-208,2940,255024
-85,90,334,-191,2903,254968
-61,64,421,-138,2892,255003
-62,99,445,-114,2912,255049
-82,143,417,-188,2887,255080
-98,139,334,-206,2932,255074
-76,144,249,-286,2853,254989
-83,111,176,-233,2832,254948
-94,70,186,-188,2865,254934
-105,78,235,-143,2870,254960
-89,52,238,-176,2833,255020
-66,71,191,-197,2913,254908
-45,130,150,-193,2906,254949
-24,139,0,-170,2863,254958
-19,146,-64,-136,2888,254869
-5,148,-108,-179,2969,254920
15,103,-92,-201,2981,254951
-5,67,-105,-222,2857,255000
-3,72,-31,-126,2872,254973
13,114,-18,-130,2889,254985
9,128,6,-126,2885,254994
39,146,15,-148,2892,255067
56,149,-44,-115,2901,254980
62,142,16,-122,2888,255017
76,133,80,-123,2873,254934
31,85,131,-201,2914,255076
44,45,202,-223,2891,255052
47,61,233,-185,2865,255091
38,48,274,-188,2822,255143
65,48,304,-264,2879,255075
81,23,236,-73,2862,255005
110,1,291,-154,2895,255036
119,-49,284,-207,2907,255021
88,-46,263,-235,2861,254991
96,-15,303,-211,2928,255037
77,19,338,-168,2895,255099
29,91,321,-196,2924,255020
53,106,251,-238,2969,255035
61,93,170,-142,2956,255097
69,71,118,-116,2900,255018
62,26,127,-180,2843,254972
47,15,118,-117,2776,254965
14,-9,150,-203,2858,255103
-10,47,163,-210,2883,254996
-31,92,111,-206,2929,254997
-39,67,85,-157,2864,255029
-16,62,38,-163,2886,254972
-18,36,-11,-217,2912,254935
-13,-30,47,-116,2981,254914
-34,-51,94,-136,2970,255018
-32,-58,140,-198,2945,255035
-47,-41,147,-228,2863,254950
-62,-6,119,-258,2896,255087
-71,54,89,-235,2879,255009
-82,43,9,-167,2878,255013
-104,19,44,-171,2913,254985
-99,13,42,-133,2882,254994
-123,-40,30,-135,2915,255049
-117,-59,84,-177,2872,255018
-152,-36,124,-186,2907,255085
-161,-33,77,-255,2927,254964
-161,-8,72,-187,2884,254888
-155,20,50,-85,2839,254972
-157,54,80,-182,2841,254980
-180,29,121,-183,2902,255064
-175,6,177,-189,2935,255018
-179,1,259,-203,2908,254897
-228,1,306,-185,2892,255071
-248,44,341,-167,2931,255108
-244,58,361,-160,2895,254980
-253,29,274,-240,2866,254926
-269,27,312,-258,2868,254933
-270,-32,263,-195,2901,254890
-303,-67,325,-97,2926,254863
-330,-78,349,-179,2910,255006
-366,-73,384,-174,2867,255014
-375,-40,296,-232,2914,255025
-377,-34,238,-176,2802,254968
-343,-48,162,-135,2829,254978
-332,-65,104,-218,2880,255038
-328,-115,104,-123,2916,255056
-330,-133,125,-151,2903,255042
-332,-120,163,-189,2888,254999
-363,-69,174,-195,2875,254979
-386,-26,138,-297,2924,254984
-367,-19,90,-298,2931,254976
-384,-31,11,-262,2882,254980
-359,-47,24,-242,2842,255065
-343,-73,-24,-217,2840,255079
-371,-100,32,-213,2885,254990
-338,-84,89,-228,2853,255039
-332,-45,79,-194,2880,255086
-354,-59,111,-154,2835,255104
-341,-3,101,-162,2862,255024
-347,-4,93,-167,2895,254957
-331,-11,119,-176,2887,255016
-306,-18,150,-145,2871,254999
-293,-33,170,-179,2932,255036
-283,-13,192,-178,2871,255112
-266,-13,175,-219,2919,255030
-271,30,137,-145,2936,255064
-272,6,120,-224,2939,255027
-262,8,92,-124,2916,254968
-264,1,98,-86,2878,255038
-259,-44,122,-110,2902,255003
-241,-54,175,-193,2811,254979
-212,-42,284,-217,2843,255080
-190,16,283,-240,2906,255113
-183,65,319,-189,2892,255048
-168,82,279,-208,2874,254957
-158,96,263,-176,2846,254872
-163,78,255,-193,2930,254998
-171,51,267,-172,2905,255011
-152,48,308,-147,2874,255017
-159,77,332,-224,2918,254945
-136,88,319,-238,2945,255064
-105,141,298,-204,2949,254986
-69,141,195,-267,3002,254972
-65,128,140,-208,2929,255018
-52,90,104,-210,2907,255067
-34,59,64,-225,2912,255074
-17,44,84,-253,2885,255060
-16,48,141,-252,2943,255016
-9,68,42,-214,2894,254998
-1,93,62,-190,2925,254951
32,95,-8,-281,2912,255000
59,122,-58,-184,2891,255030
66,104,-118,-131,2930,254948
65,65,-53,-117,2920,254952
70,48,-31,-247,2871,255085
51,61,74,-186,2858,255125
46,54,104,-181,2867,255008
58,118,106,-192,2898,255066
93,88,108,-169,2884,255058
98,93,132,-164,2871,254985
133,102,77,-169,2935,254901
125,82,177,-102,2889,254862
113,100,197,-152,2846,254952
102,118,265,-218,2869,255020
89,115,270,-219,2936,255054
82,153,266,-124,2898,254993
99,181,241,-219,2925,255063
87,192,190,-170,2892,255059
102,166,150,-134,2840,255100
103,158,203,-182,2862,254981
102,106,180,-181,2897,255007
95,162,264,-168,2917,254989
99,194,230,-200,2969,255031
73,216,236,-187,2920,254993
76,236,220,-216,2876,254951
66,234,154,-236,2889,254955
62,184,141,-186,2915,254995
62,166,152,-152,2855,255075
64,158,148,-158,2825,254973
36,177,232,-251,2884,254952
36,209,206,-184,2923,255069
27,247,226,-189,2937,255001
8,265,197,-208,2892,255058
-38,266,152,-267,2887,255070
-36,218,141,-201,2898,254995
-33,184,153,-135,2925,255072
-75,172,190,-148,2926,255073
-82,196,252,-143,3005,254967
-93,197,199,-142,2942,254886
-112,222,177,-152,2797,254972
-111,232,121,-145,2926,254882
-127,231,13,-135,2906,254931
-138,223,-2,-151,2815,255017
-165,210,36,-228,2877,255133
-177,224,69,-203,2875,254987
-189,219,102,-223,2901,255017
-207,248,82,-254,2892,254877
-202,261,83,-246,2875,254891
-214,216,11,-131,2886,254999
-217,199,9,-157,2859,255002
-219,157,-5,-147,2897,254931
-242,118,91,-147,2898,255052
-260,100,165,-184,2920,254989
-267,105,240,-182,2874,255065
-243,122,190,-182,2832,255071
-241,130,247,-156,2835,254960
-226,147,163,-172,2920,254925
-251,123,114,-165,2927,255028
-246,61,59,-194,2874,254921
-265,28,125,-192,2884,254970
-261,32,152,-180,2875,255015
-303,59,218,-192,2914,255078
-318,84,219,-217,2925,255006
-292,125,202,-205,2821,255059
-292,109,205,-153,2881,254961
-287,114,136,-191,2859,254963
-261,68,105,-247,2847,254931
-276,9,155,-193,2835,255009
-296,10,220,-238,2846,255052
-320,16,236,-271,2845,254989
-333,46,247,-212,2932,254927
-366,98,269,-226,2954,255006
-377,122,232,-252,2897,255046
-349,132,150,-176,2892,254976
-348,122,165,-179,2943,254985
-330,79,169,-139,2971,254949
-322,44,239,-136,2894,255095
-314,94,248,-169,2846,255021
-310,84,234,-185,2933,255000
-318,104,225,-210,2904,255100
-303,160,190,-191,2930,255103
-287,130,125,-213,2936,255092
-284,112,160,-123,2945,255070
-250,55,165,-233,2901,254988
-249,78,240,-185,2913,255016
-227,84,283,-231,2957,255010
-230,115,207,-192,2989,255029
-223,139,207,-235,2977,254968
-222,130,143,-276,2967,255024
-215,96,110,-219,2855,254985
-227,50,93,-252,2927,255086
-215,17,148,-220,2897,254984
-210,3,221,-116,2866,255038
-177,23,227,-269,2858,254988
-140,67,215,-211,2847,255003
-101,73,183,-115,2877,254989
-79,95,146,-106,2979,254952
-72,89,50,-143,2887,255045
-67,43,61,-238,2952,255013
-66,-8,116,-231,2933,255060
-99,16,172,-201,2902,255073
-76,-1,187,-246,2905,255076
-74,40,181,-243,2926,255016
-65,47,153,-240,2945,255039
-9,37,80,-255,2908,255038
-16,66,-21,-119,2883,255016
5,9,-31,-162,2900,254942
-1,12,11,-182,2811,254982
-24,-4,77,-158,2933,254957
-14,6,170,-166,2944,255013
22,37,167,-226,2844,254975
18,32,152,-222,2849,255032
53,35,150,-144,2832,254982
79,20,48,-144,2883,254956
86,-12,58,-161,2881,255008
106,-51,66,-207,2952,254908
83,-54,164,-175,2873,254996
91,-44,193,-128,2866,255060
69,-30,203,-241,2921,254982
57,15,234,-231,2891,255017
65,15,182,-175,2903,254993
77,-12,121,-169,2873,255067
102,-34,189,-144,2862,255026
86,-54,152,-206,2919,254983
86,-45,221,-176,2903,255045
72,18,264,-235,2851,255014
58,89,242,-153,2905,254954
70,115,281,-173,2879,254978
93,91,232,-192,2891,255089
103,44,123,-163,2853,254991
87,-30,157,-165,2879,254890
79,-71,170,-205,2864,255006
75,-86,186,-234,2911,254919
35,-47,220,-232,2942,254994
4,60,205,-213,2907,255043
9,90,223,-219,2951,254978
15,85,119,-194,2847,254970
29,70,23,-151,2882,255016
40,26,31,-149,2877,255014
37,-19,14,-191,2927,254952
-1,-51,56,-160,2889,254964
9,-57,21,-213,2880,254949
-47,10,25,-207,2927,254942
-23,30,35,-173,2928,255099
-18,62,-101,-154,2936,255065
-19,43,-96,-118,2907,255060
-4,1,-35,-168,2894,254992
-42,0,41,-174,2908,254949
-42,-12,86,-154,2865,254929
-53,-13,242,-146,2841,254992
-66,37,271,-216,2868,254971
-81,89,293,-236,2889,255012
-64,57,186,-253,2943,254976
-72,27,162,-231,2924,254928
-45,-33,165,-154,2934,255029
-103,-99,188,-101,2857,255099
-117,-129,294,-180,2881,254974
-134,-153,306,-173,2947,255016
-147,-132,299,-160,2941,254930
-144,-84,295,-224,2866,254977
-122,-95,169,-221,2910,254986
-130,-121,117,-211,2934,255009
-138,-157,117,-236,2869,254907
-192,-166,173,-147,2876,254936
-261,-178,237,-236,2910,255043
-275,-123,301,-142,2961,255127
-310,-55,311,-82,2921,255101
-310,-2,311,-154,2897,254989
-277,-3,207,-180,2875,254912
-278,-16,154,-257,2886,254949
-266,-82,158,-206,2821,254949
-275,-109,193,-169,2868,255026
-302,-113,200,-182,2870,255046
-336,-68,282,-159,2877,254959
-371,6,264,-170,2887,255038
-396,61,293,-213,2920,254996
-378,85,190,-216,2990,255026
-387,78,159,-185,2893,255101
-364,61,153,-72,2830,255032
-373,39,159,-128,2852,255047
-383,31,197,-188,2857,254989
-381,83,205,-177,2863,255106
-383,116,156,-176,2868,255012
-387,159,148,-151,2917,254943
-373,153,39,-105,2936,254999
-335,111,-74,-211,2850,254978
-308,33,-80,-140,2918,254991
-315,-4,-55,-194,2925,254978
-296,33,-53,-225,2833,254920
-295,38,19,-151,2798,255016
-289,104,41,-195,2856,254996
-268,143,61,-232,2912,255026
-265,138,21,-195,2776,254940
-254,136,7,-169,2849,254978
-269,112,73,-147,2905,255001
-285,56,126,-118,2966,254874
-279,57,190,-180,2864,255015
-254,62,275,-185,2859,254986
-250,125,264,-189,2906,254864
-236,179,257,-162,2943,254926
-201,198,170,-136,2911,255008
-165,148,137,-88,2879,255036
-169,120,117,-192,2905,254996
-192,103,146,-207,2903,255055
-215,80,206,-181,2932,254927
-213,122,305,-210,2893,254951
-227,194,295,-178,2898,254902
-213,265,287,-169,2871,254965
-186,278,223,-216,2930,254954
-161,303,154,-181,2955,255032
-148,242,154,-237,2881,254994
-159,175,209,-206,2856,254942
-146,132,263,-229,2881,255046
-128,108,325,-147,2913,255020
-170,128,407,-255,2854,254981
-134,134,401,-204,2894,255025
-102,128,316,-206,2918,255000
-69,110,231,-130,2865,255028
-28,94,259,-163,2869,255049
-20,66,195,-181,2870,255131
-32,57,252,-151,2827,255108
-36,83,251,-215,2864,255002
-71,117,255,-272,2828,254951
-67,162,166,-225,2864,254937
-46,164,95,-228,2895,254973
-20,107,9,-247,2867,254952
-8,91,21,-240,2878,254901
16,40,-42,-167,2897,255022
-11,63,57,-267,2983,255115
-15,92,97,-247,2968,255079
-38,128,114,-203,2897,254968
-33,189,98,-233,2890,255051
-33,200,24,-268,2890,255003
-22,184,16,-190,2903,255009
-3,179,43,-178,2883,254956
-4,153,53,-170,2916,254931
7,153,143,-207,2879,254994
-15,191,234,-235,2839,254998
-48,262,278,-255,2901,255037
-43,270,289,-227,2818,255036
-62,252,228,-244,2802,255070
-42,207,170,-222,2853,254984
-41,159,120,-180,2884,255051
-43,104,110,-202,2882,254929
-26,46,113,-167,2783,254947
-84,48,168,-137,2897,254918
-80,73,154,-186,2860,254963
-77,107,100,-125,2869,254968
-69,124,51,-140,2897,255054
-57,150,10,-178,2888,254996
-46,126,25,-121,2859,254991
-30,105,42,-207,2908,254998
-34,103,100,-128,2835,255059
-44,134,203,-128,2859,255015
-64,170,206,-130,2938,254981
-79,181,202,-174,2963,254966
-66,180,170,-178,2878,255039
-68,176,150,-181,2887,255010
-70,150,151,-269,2894,255009
-100,95,180,-198,2900,255007
-106,64,242,-203,2862,255067
-104,81,260,-217,2860,255020
-114,85,242,-158,2977,255030
-124,128,217,-200,2906,255042
-112,88,119,-162,2896,254985
-92,95,94,-204,2814,254951
-87,50,46,-172,2832,255036
-117,5,48,-189,2902,254983
-120,-7,105,-199,2869,254962
-166,29,189,-203,2915,254996
-169,88,172,-184,2875,255041
-148,123,186,-179,2897,254966
-136,125,123,-191,2832,254942
-133,139,73,-144,2878,254907
-133,95,86,-246,2883,255042
-138,78,87,-171,2917,255018
-179,59,180,-195,2941,254992
-201,106,270,-199,2941,254996
-241,169,322,-203,2915,255013
-237,214,323,-210,2905,255023
-200,240,280,-151,2903,255069
-185,263,224,-151,2887,255013
-157,247,196,-148,2891,255052
-164,180,201,-199,2936,255069
-181,149,234,-195,2920,255036
-188,178,264,-176,2836,254958
-219,169,247,-195,2882,254916
-226,190,198,-160,2907,254994
-206,219,124,-195,2965,255064
-198,195,78,-182,2879,255051
-160,165,70,-135,2865,254945
-140,129,10,-149,2885,255063
-147,86,52,-149,2841,255058
-122,73,102,-208,2831,255071
-180,132,97,-199,2913,255055
-160,110,99,-175,2969,254895
-152,103,65,-195,2886,254955
-143,111,47,-200,2876,254957
-116,37,17,-200,2909,255063
-106,-8,90,-167,2859,255025
-92,-21,118,-198,2919,254916
-86,-11,190,-190,2862,254888
-103,12,190,-190,2874,254967
-104,60,205,-236,2904,255002
-69,60,161,-230,2934,254914
-77,47,150,-190,2943,255000
-71,8,126,-184,2836,254983
-71,-26,158,-189,2817,255005
-66,-45,208,-176,2859,254959
-71,-35,285,-106,2872,255019
-78,11,234,-160,2903,254972
-77,28,219,-114,2882,254877
-55,37,155,-216,2911,254987
-68,44,85,-198,2854,254971
-71,-1,62,-180,2850,254976
-71,-43,94,-143,2866,255004
-60,-75,149,-133,2942,255046
-94,-56,233,-112,2913,255042
-94,-78,247,-213,2863,254955
-75,-65,240,-189,2888,254992
-89,-41,240,-189,2928,255086
-70,-58,169,-208,2976,254966
-29,-66,170,-240,2837,254965
-18,-87,164,-210,2854,255022
-15,-113,241,-200,2827,255087
-15,-85,290,-229,2877,255047
-15,-69,203,-193,2883,255032
0,-60,170,-175,2895,254964
-2,-29,120,-201,2864,254944
10,-38,21,-189,2882,254984
35,-77,-8,-165,2949,255117
29,-98,13,-151,2908,255147
25,-79,44,-233,2894,255011
18,-52,82,-109,2838,254976
2,-43,86,-171,2866,254989
7,-15,92,-255,2858,254957
10,-3,55,-273,2920,255076
34,12,19,-180,2930,254996
47,-11,-40,-162,2911,254953
51,-87,9,-184,2861,254917
63,-74,93,-163,2891,255026
35,-57,155,-148,2859,254953
12,-24,203,-209,2870,254899
19,17,211,-227,2924,255106
45,26,173,-201,2905,255034
46,16,140,-195,2891,255069
45,-5,138,-170,2911,254938
41,-58,179,-286,2893,254900
19,-59,228,-152,2898,254919
-2,-26,246,-179,2921,254947
-26,0,184,-159,2934,254993
-51,23,184,-195,2853,255008
-64,63,137,-224,2890,255039
-65,89,112,-124,2907,254944
-29,59,112,-169,2948,255145
-49,45,156,-157,2945,255066
-28,26,201,-179,2914,254975
-26,59,217,-134,2906,254949
-50,68,220,-139,2772,255056
-70,123,226,-190,2864,255032
-78,143,197,-181,2889,254983
-94,110,134,-164,2952,254988
-100,67,198,-208,2922,255106
-92,48,185,-145,2890,254944
-101,35,227,-192,2943,254921
-86,51,267,-213,2887,255017
-114,80,283,-247,2940,254996
-113,110,267,-249,2912,254963
-117,122,238,-301,2863,254931
-117,125,141,-177,2851,254910
-139,70,149,-149,2976,254998
-162,22,187,-125,2874,255036
-214,26,239,-125,2888,254939
-226,54,211,-205,2944,254978
-233,75,180,-173,2860,255036
-243,124,146,-122,2969,255055
-251,140,96,-210,2920,254953
-250,108,19,-235,2892,255018
-299,61,79,-188,2887,254997
-290,1,37,-224,2927,255002
-348,-27,99,-204,2873,255111
-408,-2,164,-254,2857,255017
-412,56,150,-247,2958,254956
-398,62,130,-233,2925,255055
-399,104,73,-210,2875,254989
-380,104,-3,-153,2858,254993
-356,88,-29,-162,2921,255012
-346,65,14,-168,2885,254995
-362,80,119,-165,2868,254997
-354,99,183,-133,2919,254916
-380,73,226,-187,2933,254940
-381,114,224,-167,2913,254992
-396,103,168,-232,2863,255100
-381,63,87,-230,2852,254981
-372,75,95,-139,2852,254898
-382,70,111,-205,2941,255007
-364,91,170,-216,2913,254990
-354,64,188,-241,2873,255042
-350,66,216,-210,2921,254996
-353,50,249,-133,2921,254988
-365,38,298,-189,2858,254984
-331,26,273,-204,2842,254985
-338,-23,364,-101,2873,254945
-326,-29,337,-140,2876,255037
-339,-8,371,-154,2876,255023
-354,41,330,-221,2863,254963
-365,80,308,-238,2871,255042
-370,108,258,-216,2829,255071
-369,116,179,-214,2909,255013
-381,62,116,-161,2904,254871
-371,22,125,-140,2871,254784
-377,-19,123,-226,2854,255035
-387,-8,160,-236,2887,255030
-360,28,203,-235,2903,255073
-345,54,208,-195,2955,254953
-322,116,173,-158,2896,255017
-316,100,110,-110,2995,255022
-276,76,49,-204,2917,254849
-276,50,69,-227,2914,254946
-262,4,78,-197,2795,254951
-262,23,114,-208,2846,255051
-258,44,118,-150,2967,255101
-248,65,99,-206,2887,255019
-213,79,113,-227,2864,254998
-216,117,54,-182,2918,255024
-168,96,31,-201,2959,255037
-172,56,92,-216,2869,254969
-160,44,206,-192,2858,255004
-138,34,267,-218,2917,255075
-96,70,315,-199,2906,254948
-58,71,343,-204,2855,255019
-88,98,373,-255,2840,255078
-17,112,239,-198,2874,254993
1,82,233,-164,2817,254905
12,83,245,-214,2906,255004
21,83,264,-161,2943,254926
0,87,283,-168,2892,255013
12,104,286,-204,2929,255126
1,137,291,-203,2882,255127
17,134,244,-237,2884,255063
23,121,131,-203,2909,254939
77,106,59,-144,2852,254968
51,95,116,-196,2890,254979
71,118,90,-158,2906,254945
44,125,143,-174,2852,255017
22,162,167,-197,2880,254942
4,205,164,-222,2852,255030
4,221,134,-215,2945,255015
17,200,-11,-158,2900,255067
17,177,-47,-131,2860,255038
14,146,-46,-144,2832,255033
16,130,-66,-190,2861,255091
3,153,-69,-207,2884,255059
18,185,-22,-181,2823,255048
27,223,1,-213,2962,254992
25,251,-6,-219,2929,255005
59,235,25,-192,2894,254944
92,212,-30,-185,2973,255034
98,157,7,-218,2928,255031
114,142,121,-181,2872,254962
111,117,119,-239,2899,254914
123,127,215,-219,2954,254923
127,167,198,-168,2914,255003
115,137,226,-139,2882,255093
112,128,221,-219,2897,255034
101,114,190,-196,2889,254980
93,65,248,-163,2939,254937
88,15,271,-143,2901,254987
72,10,294,-120,2830,254914
60,57,350,-172,2868,254974
69,57,322,-264,2915,254969
45,81,323,-230,2846,254970
61,92,214,-183,2878,255016
40,40,209,-119,2934,254940
33,46,224,-141,2917,254907
-19,51,237,-162,2902,255000
-15,30,216,-149,2865,254990
-33,54,276,-147,2908,254947
-54,98,214,-189,2919,255010
-51,138,158,-155,2886,254977
-56,121,60,-239,2880,254908
-82,114,37,-222,2852,254961
-78,72,15,-265,2917,255054
-126,50,32,-172,2914,254978
-145,21,92,-283,2904,254975
-127,35,161,-214,2868,254994
-138,81,102,-198,2833,255049
-124,101,94,-173,2879,254975
-100,110,-4,-131,2944,254967
-81,90,-66,-184,2941,255018
-87,48,-23,-252,2861,254998
-91,27,9,-227,2897,255036
-130,10,55,-179,2862,255000
-142,26,108,-142,2909,254890
-154,54,160,-153,2958,254915
-170,66,108,-232,2953,254961
-174,68,70,-177,2886,254928
-155,53,54,-194,2888,254959
-148,34,104,-261,2848,254949
-138,44,94,-248,2853,255075
-151,57,170,-227,2882,255068
-151,95,207,-249,2914,255062
-179,121,233,-196,2915,255072
-198,135,228,-211,2856,255050
-188,126,162,-174,2900,254984
-164,76,148,-136,2875,254984
-164,54,151,-261,2955,254958
-173,25,146,-226,2920,254957
-171,31,152,-183,2867,255092
-191,70,226,-207,2918,255008
-210,122,230,-125,2882,255028
-221,145,181,-187,2852,254979
-223,120,190,-139,2892,254955
-196,79,171,-209,2811,255048
-204,28,180,-155,2833,254884
-205,-22,213,-220,2866,254923
-198,-23,243,-180,2880,255088
-195,-21,225,-186,2859,254980
-185,46,246,-177,2852,255065
-167,42,172,-211,2886,254995
-156,61,135,-221,2884,255027
-144,32,71,-202,2888,254945
-157,-9,106,-165,2867,254992
-110,-45,71,-168,2882,255109
-123,-55,136,-89,2887,254997
-121,-18,195,-211,2862,254937
-86,40,210,-213,2885,255079
-96,50,141,-184,2921,254982
-79,113,142,-121,2908,254973
-67,95,84,-238,2935,254990
-71,64,173,-257,2912,255031
-84,38,173,-184,2924,255080
-44,50,231,-143,2885,255028
-36,35,299,-145,2868,255051
-38,96,342,-156,2846,255023
-12,122,193,-161,2863,255047
-34,90,279,-130,2842,255061
47,92,59,-167,2939,255107
-13,131,128,-177,2910,255136
12,52,123,-159,2838,254979
-37,71,163,-161,2865,255026
-22,100,252,-178,2877,255027
14,112,93,-183,2849,254998
-56,153,151,-151,2803,255022
-9,171,161,-184,2848,254977
-13,90,-40,-166,2888,255004
-75,36,146,-140,2890,255058
-4,30,101,-241,2915,255066
-53,7,39,-221,2931,255066
-55,31,237,-177,2939,254987
-67,135,172,-176,2971,255024
-52,134,160,-208,2874,254995
-45,109,112,-186,2906,254947
-3,112,39,-162,2904,254930
8,62,45,-116,2971,254916
-26,7,25,-248,2940,255004
-48,-5,136,-225,2868,254970
-50,61,208,-254,2884,255047
-80,76,167,-166,2867,254989
-73,101,193,-193,2927,254989
-40,123,103,-220,2947,254979
-57,81,42,-205,2959,255116
-47,60,129,-221,2913,254941
-70,37,135,-213,2896,254927
-92,17,170,-240,2834,255031
-116,41,234,-193,2820,255094
-79,53,200,-193,2934,255058
-124,68,203,-200,2929,254975
-96,71,188,-213,2950,254985
-125,71,186,-262,2902,255047
-125,12,174,-248,2897,254989
-124,-24,141,-186,2905,254986
-137,-31,196,-148,2972,255007
-140,5,233,-216,2943,254930
-182,25,223,-179,2886,254989
-177,24,171,-180,2908,255049
-183,21,198,-183,2958,254969
-176,-37,144,-214,2945,255004
-196,-50,182,-170,2866,254931
-201,-100,170,-194,2909,255046
-237,-131,228,-168,2893,254986
-231,-45,263,-199,2899,254987
-250,-3,221,-151,2947,254882
-269,53,167,-113,2972,254866
-262,71,81,-183,2915,254960
-265,28,107,-257,2914,255020
-283,10,76,-217,2814,255071
-310,-41,108,-214,2793,255025
-306,-38,172,-160,2814,254930
-353,13,241,-129,2812,254878
-346,56,201,-205,2898,254942
-329,52,181,-172,2893,255049
-324,78,113,-172,2907,254975
-318,103,140,-212,2869,254952
-296,53,80,-212,2890,254867
-315,27,141,-204,2894,254967
-293,30,182,-259,2892,255079
-308,72,257,-231,2922,255059
-299,96,239,-162,2931,254959
-300,132,243,-220,2900,254923
-287,146,205,-170,2857,254910
-280,137,202,-188,2874,254907
-247,83,127,-154,2857,255034
-276,83,127,-216,2881,255094
-295,68,176,-188,2819,255031
-316,72,192,-86,2800,255019
-316,102,208,-167,2948,254997
-347,139,178,-150,2959,255047
-324,139,140,-108,2852,254971
-334,114,146,-179,2898,254977
-385,90,122,-251,2940,255035
-364,57,132,-216,2959,255021
-359,84,205,-243,2947,254983
-356,117,214,-141,2932,254976
-359,134,239,-225,2906,254907
-352,176,195,-213,2864,254892
-332,136,211,-228,2865,254944
-300,73,183,-165,2883,254995
-305,29,160,-132,2882,254942
-328,-54,204,-200,2872,255029
-331,-45,265,-111,2858,255009
-329,-4,267,-194,2937,255010
-310,65,293,-152,2893,255050
-267,108,236,-163,2824,255029
-254,139,183,-177,2889,255006
-225,91,101,-201,2944,255030
-194,30,52,-181,2882,255028
-161,-27,91,-146,2928,255027
-199,-8,154,-236,2867,254955
-170,-3,148,-162,2965,255054
-141,37,149,-170,2854,255021
-144,81,85,-171,2962,254931
-110,136,77,-217,2969,254923
-116,148,68,-205,2919,254947
-118,125,74,-157,2912,254913
-102,83,170,-131,2942,255051
-108,61,143,-132,2845,255004
-112,92,236,-156,2923,255012
-105,119,207,-144,2918,254997
-132,120,223,-113,2930,254976
-119,128,234,-178,2893,254963
-91,115,138,-130,2846,254983
-104,106,212,-185,2913,255011
-83,84,207,-215,2996,254988
-94,94,243,-208,2907,255048
-102,90,232,-234,2945,255004
-94,102,243,-209,2957,254976
-83,102,177,-165,2905,255028
-74,77,170,-185,2934,254989
-53,62,108,-176,2894,254925
-36,36,99,-205,2866,255016
-19,7,97,-212,2879,255011
-31,12,196,-145,2887,255040
-41,64,236,-208,2957,255167
-33,86,252,-205,2947,255084
-11,137,219,-167,2895,254955
-10,140,196,-166,2887,254989
-8,101,119,-201,2883,254977
4,48,94,-196,2863,255042
3,28,127,-201,2894,254932
13,39,143,-208,2900,254869
7,45,183,-195,2962,255069
16,114,167,-164,2992,255012
28,132,151,-191,2975,255024
21,131,83,-178,2887,255086
33,121,-21,-183,2961,255008
23,77,-8,-249,2975,254997
29,53,18,-288,2916,255010
11,50,46,-234,2968,254937
-6,70,31,-194,2889,254938
-1,76,90,-166,2817,255031
-10,88,66,-130,2829,255019
-41,105,94,-181,2943,255045
-43,70,75,-135,2901,255011
-51,61,119,-153,2902,254987
-51,10,116,-193,2885,254939
-53,44,187,-134,2827,254917
-71,41,201,-156,2844,255020
-76,52,209,-171,2872,254933
-67,77,198,-145,2889,255057
-69,51,181,-172,2913,254950
-59,34,155,-165,2878,254986
-66,14,175,-184,2851,255077
-85,-32,169,-146,2896,254950
-66,-31,249,-206,2926,254925
-48,-16,212,-194,2899,254940
-50,37,162,-163,2896,254965
5,58,135,-255,2868,255073
21,73,69,-194,2866,254983
22,22,25,-203,2863,255079
38,-33,4,-187,2849,255112
34,-70,48,-247,2881,254998
-9,-52,68,-211,2899,254974
-28,-2,140,-213,2922,255003
-4,57,134,-263,2850,254929
35,122,87,-217,2861,255023
20,154,122,-233,2926,254993
29,184,99,-208,2939,255016
-1,134,122,-188,2895,254993
-6,100,177,-177,2860,254886
-46,139,223,-205,2889,255046
-84,132,273,-234,2946,255111
-76,157,302,-224,2941,254993
-93,170,298,-229,2890,254992
-76,163,221,-225,2872,254948
-52,150,197,-164,2905,254892
-54,100,163,-120,2906,254924
-53,83,220,-195,2897,254942
-51,64,234,-196,2842,255093
-74,106,253,-236,2917,255147
-63,119,259,-228,2937,255076
-66,141,194,-178,2895,255043
-50,129,144,-213,2963,255035
-42,97,116,-218,2910,254938
-18,80,113,-167,2887,254928
16,76,96,-218,2921,254907
2,87,96,-140,2904,254978
-1,110,101,-137,2851,254982
-15,135,68,-146,2857,254943
-50,119,50,-169,2914,254998
-24,121,-23,-214,2920,254920
-35,104,-31,-152,2924,254947
-28,54,17,-191,2950,255019
-11,42,37,-306,2964,254950
-6,30,46,-227,2886,254887
-10,78,102,-157,2899,254950
-2,103,81,-188,2879,254880
-29,136,106,-224,2886,255004
-9,135,47,-108,2874,254983
-18,101,40,-201,2870,254916
-23,54,63,-234,2892,254946
-24,20,152,-63,2878,254934
-34,29,172,-144,2870,254975
-39,35,216,-178,2933,255062
-33,58,245,-206,2956,255062
-29,94,219,-158,2899,255026
-32,81,181,-144,2913,254961
-55,82,159,-193,2924,254982
-55,61,223,-201,2864,255010
-66,51,236,-163,2848,255011
-63,59,241,-212,2801,255027
-59,62,295,-199,2878,254987
-63,77,276,-219,2888,255063
-62,72,209,-196,2873,254934
-26,73,125,-191,2932,254957
-13,29,56,-130,2896,254964
-38,38,95,-156,2894,255076
-66,46,68,-148,2825,254965
-82,60,65,-104,2802,254957
-72,80,150,-176,2894,254972
-65,115,193,-143,2885,255035
-64,149,179,-176,2930,254998
-35,111,132,-191,2983,255027
-62,116,105,-200,2819,255144
-65,116,88,-142,2962,254931
-82,76,90,-145,2880,255068
-83,101,54,-195,2864,255033
-76,128,25,-195,2835,255030
-76,130,-8,-213,2884,255015
-75,161,-27,-185,2919,255055
-71,143,-77,-237,2872,255028
-65,120,-20,-188,2882,254957
-71,92,28,-258,2938,255001
-83,61,146,-226,2886,255018
-99,72,215,-244,2934,255039
-132,108,301,-207,2885,255063
-149,161,387,-198,2900,255012
-161,174,297,-177,2916,255067
-190,156,297,-194,2953,255113
-176,128,279,-218,2887,254990
-180,97,306,-184,2858,255024
-191,77,321,-196,2918,254935
-254,117,365,-235,2880,255040
-259,81,367,-223,2914,255021
-284,90,386,-196,2914,254963
-298,92,301,-144,2971,254977
-288,74,223,-198,2869,254899
-292,45,212,-221,2898,254967
-309,10,224,-212,2866,255042
-307,7,199,-263,2929,255015
-307,12,252,-198,2869,255070
-307,53,279,-148,2869,255069
-310,99,307,-125,2899,255020
-325,101,217,-99,2888,255097
-324,38,154,-154,2893,255060
-312,-17,89,-155,2861,255027
-338,-42,84,-193,2902,254999
-324,-120,41,-261,2936,255036
-347,-115,74,-165,2866,255019
-351,-107,85,-154,2894,254970
-361,-84,148,-214,2920,254986
-355,-47,79,-233,2935,254936
-365,-76,104,-187,2876,254952
-352,-99,72,-204,2901,254828
-364,-111,123,-213,2864,254905
-347,-150,120,-200,2910,255019
-378,-113,202,-171,2862,254972
-394,-80,198,-210,2906,255076
-400,-10,245,-162,2923,255032
-396,13,120,-159,2916,255034
-387,28,96,-151,2910,254968
-389,16,62,-221,2913,254988
-414,0,132,-278,2830,255040
-412,-15,166,-177,2940,255051
-418,26,198,-138,2956,255044
-422,27,227,-203,2917,255052
-439,93,274,-247,2900,255047
-423,92,170,-198,2903,254985
-414,117,192,-250,2878,254980
-390,127,143,-228,2918,254999
-393,118,200,-162,2922,254953
-391,91,256,-211,2911,254932
-389,74,320,-191,2886,254982
-369,69,388,-193,2903,255021
-361,110,368,-128,2869,255042
-367,87,298,-180,2884,254989
-346,59,263,-210,2833,254950
-319,18,168,-152,2849,254889
-319,-10,140,-228,2859,254943
-285,-56,151,-279,2882,255069
-281,-26,187,-207,2907,254994
-264,13,224,-190,2869,254989
-281,60,232,-125,2830,255094
-241,69,96,-213,2924,255004
-235,41,101,-195,2943,254964
-227,9,49,-172,2885,255001
-235,-3,65,-175,2922,255080
-234,-53,77,-251,2952,255029
-224,3,113,-165,2920,254992
-219,73,131,-162,2943,255018
-221,110,152,-155,2906,255035
-191,104,93,-171,2869,254967
-169,125,84,-199,2946,254912
-157,85,33,-185,2859,254993
-157,37,83,-259,2904,255083
-149,40,75,-247,2841,255005
-152,43,91,-198,2857,255003
-156,59,171,-220,2857,255001
-142,99,165,-210,2824,255074
-113,108,114,-176,2905,255025
-91,106,141,-191,2864,255037
-86,105,157,-188,2856,254925
-78,50,157,-227,2960,254949
-59,13,201,-219,2899,255027
-60,0,199,-191,2851,254969
-75,-2,265,-161,2908,254919
-71,45,245,-261,2902,255023
-49,78,178,-249,2837,254969
4,81,132,-188,2877,254887
10,88,98,-125,2845,254826
17,85,150,-129,2853,254981
64,50,179,-202,2906,254975
33,88,267,-196,2845,254918
53,125,315,-224,2868,255012
68,153,243,-199,2931,255075
69,170,156,-171,2939,255000
80,161,147,-159,2919,254939
105,141,74,-231,2897,254943
71,114,113,-288,2898,254928
97,96,163,-233,2927,254976
94,113,204,-143,2865,255009
74,108,292,-113,2915,255016
73,145,286,-161,2882,255046
79,148,125,-151,2818,255057
100,125,117,-215,2894,255062
99,133,51,-207,2872,255031
73,91,25,-197,2865,255081
75,54,58,-186,2880,254982
51,58,122,-172,2905,255090
43,67,213,-165,2956,255037
54,81,224,-159,2891,255073
51,95,199,-134,2929,255043
54,87,202,-94,2934,255083
65,74,144,-164,2899,255013
40,40,87,-165,2947,255010
62,34,154,-204,2933,254978
60,22,109,-155,2919,254992
38,40,211,-167,2935,254979
51,55,141,-216,2840,254993
30,115,129,-165,2872,255042
47,103,79,-172,2902,255040
38,86,80,-193,2880,255038
38,61,25,-196,2900,255049
49,26,48,-177,2911,254980
62,38,65,-199,2872,254923
58,71,113,-224,2897,254927
59,97,105,-167,2930,255036
58,78,33,-157,2911,255060
78,64,38,-163,2890,254965
65,47,14,-211,2895,254957
36,31,34,-194,2896,255070
38,16,82,-179,2912,254947
22,40,120,-218,2952,254962
16,93,176,-171,2891,255075
29,141,143,-169,2923,255047
-3,142,110,-154,2906,254974
-8,105,96,-170,2850,255034
-28,99,46,-149,2809,255063
-34,36,37,-162,2922,254950
-26,13,83,-214,2947,255018
-51,21,132,-249,2900,255056
-78,58,201,-189,2892,255104
-67,99,203,-223,2968,255098
-79,164,179,-196,2939,254987
-76,192,151,-164,2868,254925
-93,165,128,-150,2862,254977
-107,118,154,-181,2853,254971
-92,95,205,-219,2930,254952
-130,96,231,-240,2885,254972
-141,144,304,-225,2924,255054
-152,175,318,-241,2856,255067
-133,208,254,-153,2976,255005
-82,200,203,-215,2957,254885
-67,184,146,-272,2936,254947
-83,146,124,-245,2882,255079
-88,110,183,-239,2891,255086
-112,141,229,-175,2817,254916
-102,134,222,-208,2803,254998
-111,136,234,-206,2882,255102
-81,142,130,-188,2868,254978
-72,127,114,-95,2897,255014
-53,108,51,-186,2930,255001
-62,71,44,-211,2901,254931
-48,26,85,-207,2783,254961
-64,13,91,-225,2853,255018
-70,9,140,-212,2922,255074
-50,27,92,-184,2953,255058
-85,26,29,-164,2845,255078
-79,34,94,-207,2867,255025
-48,6,-15,-185,2799,255043
-136,28,84,-212,2972,254958
-94,13,130,-174,2866,254992
-94,56,172,-140,2838,255009
-111,86,183,-138,2915,254970
-116,104,209,-191,2836,254984
-130,138,170,-185,2881,254906
-137,143,164,-150,2928,255021
-137,105,113,-113,2866,255053
-123,107,99,-172,2850,254989
-122,59,120,-184,2859,254998
-126,84,216,-106,2856,255055
-124,143,231,-203,2883,254976
-116,153,235,-209,2918,255140
-97,188,189,-229,2880,255020
-107,187,172,-243,2912,254906
-82,159,71,-73,2879,254996
-96,103,91,-158,2935,254858
-68,70,78,-174,2940,254982
-82,80,109,-162,2873,255048
-95,47,143,-174,2809,255043
-76,68,173,-136,2940,255127
-67,92,137,-192,2943,255068
-75,58,124,-148,2936,255038
-53,57,145,-234,2859,255104
-81,15,161,-171,2920,255057
-101,16,219,-181,2924,255045
-109,40,255,-148,2927,255003
-110,45,246,-146,2927,255040
-105,77,237,-196,2961,254953
-105,86,168,-224,2989,254913
-121,75,181,-252,2845,254986
-139,52,109,-223,2833,255021
-170,-13,84,-201,2869,254952
-183,-38,104,-198,2917,254992
-223,-39,120,-203,2879,254916
-215,-17,150,-220,2922,254943
-208,16,192,-168,2866,254968
-210,43,128,-145,2809,255112
-219,21,171,-206,2867,254943
-219,0,112,-196,2888,255056
-220,-2,96,-183,2887,255016
-194,-42,160,-137,2886,254976
-211,20,196,-178,2895,254977
-195,76,199,-186,2874,255092
-194,93,247,-175,2935,254973
-185,148,174,-231,2952,255026
-175,127,130,-235,2958,254987
-148,104,49,-221,2906,254974
-111,52,2,-113,2876,255075
-70,0,77,-172,2882,255018
-82,30,98,-174,2991,254982
-114,34,153,-172,2961,254970
-114,91,147,-181,2867,254960
-109,118,93,-161,2854,254943
-69,128,166,-174,2898,254965
-45,156,148,-175,2921,254924
-55,148,210,-189,2885,254976
-59,144,352,-183,2917,255038
-120,158,412,-161,2890,255034
-136,163,454,-184,2897,255034
-125,165,425,-229,2863,255014
-177,185,343,-177,2859,254990
-173,193,328,-205,2899,254976
-235,176,264,-191,2898,255025
-298,136,212,-221,2845,254990
-347,101,233,-172,2935,255023
-380,56,111,-199,2998,254967
-385,42,159,-144,2942,255103
-390,43,98,-201,2919,255065
-400,61,68,-181,2893,255015
-440,13,64,-249,2904,254962
-486,-4,110,-192,2962,254901
-495,-40,116,-209,2922,254964
-515,-28,233,-195,2881,254921
-483,-6,221,-211,2893,254999
-468,3,308,-220,2839,254972
-411,-14,252,-233,2930,254985
-390,-18,164,-207,2996,255018
-382,-97,72,-130,2875,255085
-359,-133,24,-143,2833,255012
-328,-172,3,-142,2859,255047
-301,-183,28,-184,2954,255118
-280,-156,-31,-215,2956,255059
-250,-137,34,-218,2900,255071
-201,-123,32,-168,2873,255031
-191,-51,95,-221,2868,254938
-140,-37,116,-190,2955,255055
-124,-57,144,-131,2921,255130
-80,-81,240,-173,2850,255050
-119,-71,286,-182,2905,254915
-158,-56,312,-239,2931,254916
-155,-36,405,-261,2885,255048
-175,-32,392,-223,2876,255085
-193,6,325,-196,2871,255055
-227,-34,226,-184,2840,255017
-276,-28,163,-175,2870,255042
-279,-18,101,-136,2906,255051
-363,9,110,-128,2916,254983
-390,51,90,-181,2920,255060
-416,77,154,-251,2922,255111
-435,128,168,-186,2876,255022
-433,212,202,-203,2888,254979
-420,186,217,-241,2961,254933
-429,223,257,-228,2904,254975
-446,201,311,-187,2903,255122
-444,190,396,-164,2894,255068
-438,213,365,-179,2873,255064
-401,191,320,-150,2972,254983
-341,186,291,-173,2930,254939
-318,182,166,-188,2915,254917
-288,148,117,-245,2962,254966
-254,102,92,-192,3041,255105
-218,107,76,-167,2936,255027
-193,90,139,-201,2900,255102
-162,117,140,-173,2868,255001
-129,154,169,-139,2970,254952
-117,177,198,-180,2928,255006
-78,234,194,-194,2851,254997
-40,244,192,-184,2826,255025
-59,215,241,-243,2850,254996
-28,196,271,-197,2858,254967
-40,185,264,-219,2853,255080
-69,141,217,-154,2920,255185
-57,136,187,-177,2929,254937
-90,121,71,-180,2923,254964
-105,76,-21,-191,2912,255007
-75,10,-116,-224,2862,254971
-130,-25,-125,-191,2826,255054
-138,-90,-156,-186,2854,254972
-144,-130,-97,-180,2947,254917
-164,-129,-53,-212,2921,255079
-154,-101,21,-251,2866,255039
-152,-70,64,-257,2910,254882
-148,-41,39,-163,2863,255120
-123,-78,58,-187,2912,255053
-110,-90,78,-214,2885,255001
-93,-88,132,-224,2879,254963
-43,-86,108,-218,2879,255047
-52,-60,152,-198,2906,254972
-6,-60,159,-176,2897,255096
43,-17,139,-159,2944,255107
107,-26,70,-93,2916,254994
139,-35,52,-121,2908,254952
162,-71,67,-183,2978,255005
178,-99,140,-198,2898,254954
191,-93,121,-211,2865,255113
206,-69,197,-245,2880,255084
254,-54,242,-223,2828,255143
268,-33,282,-181,2846,255087
287,-9,209,-194,2859,255062
288,-4,257,-181,2869,255007
269,-25,249,-169,2924,254963
252,-4,320,-167,2916,254870
243,-10,329,-146,2918,254956
218,8,345,-155,2848,254995
223,33,378,-238,2854,255012
223,57,319,-241,2853,255081
194,88,270,-279,2901,255063
157,125,250,-169,2904,255052
106,103,235,-159,2952,255042
58,132,274,-160,2827,254902
34,151,255,-207,2873,254933
4,176,248,-227,2913,254850
3,217,305,-112,2979,255031
-32,247,293,-177,2877,255086
-30,276,219,-246,2890,254906
-37,279,198,-204,2909,254799
-37,244,155,-123,2909,254984
-61,258,192,-164,2922,254965
-74,230,145,-191,2877,255026
-57,263,111,-178,2878,255090
-27,269,90,-163,2905,255090
-18,290,52,-181,2922,255018
-4,303,-42,-240,2907,254976
13,259,-49,-322,2934,255001
26,212,-124,-223,2879,255031
22,173,-70,-237,2883,254948
20,154,-70,-176,2936,255013
31,150,-69,-210,2836,254887
5,174,-27,-202,2903,255007
27,167,-47,-162,2873,255066
56,160,-113,-177,2866,255073
60,114,-100,-187,2900,254958
45,67,-108,-153,2878,255035
11,56,-70,-183,2874,254983
-9,39,-88,-253,2918,254973
-33,52,-87,-153,2937,254997
-42,94,-42,-184,2888,254946
-56,131,-71,-204,2892,255040
-63,173,-59,-127,2938,255068
-53,170,-74,-121,2958,255005
-71,156,-74,-138,2926,254927
-83,155,11,-183,2905,255040
-95,158,42,-219,2932,255010
-101,161,122,-158,2909,254994
-74,169,176,-174,2944,254941
-79,172,167,-187,2922,255067
-66,170,167,-106,2885,255029
-38,127,172,-141,2899,254975
-50,103,234,-251,2839,254952
-50,56,243,-235,2898,255088
-61,-1,292,-136,2900,254936
-73,8,353,-151,2888,254987
-27,-7,370,-183,2897,255006
-20,19,398,-200,2911,255002
-14,42,327,-211,2904,255042
-10,17,343,-193,2822,254924
-18,26,345,-124,2902,255004
-44,-8,363,-131,2903,255077
-67,-19,440,-135,2878,254974
-106,3,466,-194,2880,255043
-64,31,514,-223,2901,255109
-43,36,474,-225,2857,255021
-103,29,450,-142,2876,255037
-88,6,432,-188,2875,254998
-116,5,403,-199,2884,255029
-144,-13,371,-201,2866,254941
-154,11,358,-208,2879,254985
-207,13,329,-190,2867,254884
-220,33,306,-163,2909,254958
-210,61,171,-224,2907,254976
-220,86,124,-160,2915,254905
-209,70,97,-156,2927,254946
-241,70,139,-189,2881,255037
-232,61,166,-132,2970,254930
-247,44,190,-168,2882,255026
-254,83,186,-197,2822,255119
-253,130,230,-204,2889,255026
-248,123,93,-113,2920,255007
-246,163,35,-123,2931,254897
-248,122,-68,-165,2930,255050
-287,85,-144,-177,2899,255055
-304,59,-176,-161,2832,255051
-320,17,-172,-204,2900,254997
-327,70,-125,-172,2908,254979
-305,98,-107,-169,2884,255004
-301,106,-114,-144,2839,254916
-286,119,-136,-212,2897,254924
-260,76,-89,-201,2935,254970
-270,91,-35,-142,2934,255033
-267,87,-78,-202,2921,255054
-258,50,34,-152,2874,254966
-243,114,70,-145,2823,255037
-228,163,82,-204,2851,254981
-199,167,81,-204,2875,255027
-178,214,21,-167,2871,255036
-158,183,2,-137,2898,255089
-183,148,37,-150,2915,254948
-196,117,19,-146,2861,255042
-185,99,81,-163,2882,254920
-208,99,139,-194,2909,254974
-192,130,185,-208,2916,254988
-157,110,170,-214,2904,255125
-127,90,165,-164,2905,255088
-70,75,137,-202,2903,255058
-110,46,207,-206,2837,254901
-82,-8,238,-162,2905,254901
-106,-27,321,-100,2922,254948
-132,-25,363,-236,2825,255026
-126,44,409,-178,2849,254922
-110,63,356,-184,2960,255026
-74,86,309,-233,2950,254993
-44,76,311,-256,2919,254936
-86,69,272,-238,2880,255020
-101,53,346,-253,2903,255012
-117,-1,365,-229,2890,255080
-154,23,410,-189,2893,255011
-146,23,468,-274,2918,254913
-159,46,438,-224,2891,254938
-143,64,412,-222,2963,254906
-126,61,417,-220,2987,254964
-135,63,368,-226,2911,255019
-151,33,354,-219,2915,254955
-143,-2,396,-176,2873,254922
-164,37,364,-217,2884,254968
-177,53,409,-281,2903,255011
-179,61,327,-247,2860,255147
-178,89,273,-122,2794,255028
-190,54,208,-163,2906,255049
-212,50,157,-244,2899,255048
-246,-15,160,-238,2945,254962
-270,-26,263,-197,2857,255007
-283,40,290,-154,2858,255009
-314,26,316,-178,2918,254996
-303,46,223,-247,2948,254929
-303,35,77,-221,2919,254984
-338,0,77,-220,2951,255100
-362,-10,-40,-264,2933,255115
-400,-71,-55,-271,2935,254898
-383,-78,-40,-224,2939,254868
-395,-35,-27,-184,2902,254938
-399,-6,-75,-188,2951,254979
-385,32,-88,-257,2909,255060
-365,66,-185,-183,2832,254969
-388,61,-158,-142,2845,254936
-389,46,-197,-219,2950,254993
-397,29,-198,-172,2920,255062
-396,0,-94,-200,2938,255004
-412,51,-39,-225,2909,254989
-407,89,-7,-203,2950,254926
-378,63,26,-122,2969,255071
-346,89,0,-123,2965,255013
-329,74,36,-131,2953,255014
-337,-7,25,-98,2918,255034
-348,-63,35,-188,2862,254965
-332,-93,63,-236,2878,254963
-319,-99,134,-191,2938,254956
-314,-86,191,-253,2891,254966
-289,-34,212,-150,2813,254901
-259,-44,164,-187,2873,254994
-225,-32,170,-167,2906,254892
-204,-27,169,-180,2882,255015
-215,-55,220,-183,2899,255122
-217,-43,325,-214,2950,255047
-237,9,406,-192,2793,255003
-237,26,473,-205,2839,255044
-203,31,475,-235,2861,255035
-164,52,417,-242,2892,254996
-154,41,392,-164,2813,254955
-159,6,326,-179,2818,254995
-143,-20,332,-221,2830,254985
-145,-24,366,-155,2826,254968
-203,12,405,-210,2896,255020
-166,14,407,-203,2863,254997
-143,47,340,-225,2892,254915
-122,74,261,-257,2863,254956
-81,45,235,-188,2881,254995
-141,48,223,-227,2909,254983
-117,0,223,-236,2901,254989
-100,-20,229,-270,2888,255083
-84,8,261,-289,2911,254978
-68,39,273,-190,2860,254989
-72,77,261,-195,2884,254968
-45,132,194,-229,2927,254956
-27,93,100,-194,2855,254919
-23,80,45,-156,2888,254945
-13,38,42,-127,2916,254973
-13,14,63,-227,2846,254971
-25,58,78,-192,2852,254979
-34,74,82,-127,2901,254996
-19,112,70,-137,2859,255053
-10,146,42,-125,2881,254912
-13,142,36,-190,2899,254895
0,144,0,-217,2884,254988
3,101,9,-186,2860,255007
18,104,84,-202,2851,255032
3,143,112,-152,2849,255019
6,145,132,-197,2900,255029
27,169,140,-176,2831,255126
40,191,65,-221,2895,255057
64,158,36,-204,2988,254945
40,142,11,-145,2950,255106
47,122,14,-168,2848,255123
57,94,71,-156,2937,255020
45,141,84,-173,2932,254909
55,136,92,-188,2913,254933
65,119,108,-175,2866,255055
82,142,95,-119,2873,255092
70,103,85,-128,2885,255023
82,46,24,-234,2847,255035
64,10,42,-272,2924,255027
77,16,138,-209,2903,255066
67,32,147,-166,2847,255040
78,50,228,-209,2904,255017
141,78,183,-230,2870,255093
151,88,160,-208,2912,255002
173,92,103,-252,2853,254907
167,90,52,-186,2827,255013
167,63,43,-149,2876,255066
152,83,70,-134,2855,254974
125,94,62,-178,2878,254964
130,102,157,-149,2905,254976
131,119,119,-196,2872,255033
132,144,159,-148,2876,255043
145,143,81,-133,2845,255096
120,116,92,-166,2853,255006
122,82,84,-212,2859,255093
69,87,167,-222,2853,254979
56,90,142,-216,2887,254971
47,81,244,-156,2873,254986
66,77,228,-156,2842,255075
63,109,224,-190,2819,254993
78,117,209,-205,2947,254979
80,116,162,-165,2984,254989
55,97,225,-162,2903,255036
51,122,265,-151,3007,254989
42,136,248,-153,2958,254969
31,147,290,-167,2915,255076
18,162,281,-175,2870,255063
-3,177,207,-112,2906,255088
13,126,139,-102,2935,255094
-15,65,116,-144,2927,255050
-27,46,120,-174,2879,254922
-44,70,144,-194,2891,254921
-65,78,144,-207,2880,254986
-62,121,160,-229,2847,255019
-63,147,164,-185,2956,255036
-79,145,86,-193,2916,255011
-77,107,76,-157,2910,255005
-67,79,-1,-176,2860,255042
-62,3,-11,-149,2892,255011
-119,11,56,-134,2885,254988
-120,21,17,-170,2943,255059
-131,31,83,-263,2960,255044
-116,70,68,-219,2945,254918
-94,119,58,-134,2882,254935
-88,127,19,-187,2915,255099
-114,118,41,-224,2929,255075
-122,85,73,-187,2915,255063
-134,92,67,-205,2912,255014
-162,78,106,-152,2953,255048
-147,79,230,-150,2913,255049
-139,115,240,-218,2923,255046
-162,140,203,-221,2903,254980
-145,160,153,-193,2920,255009
-155,148,154,-213,2946,254974
-178,170,154,-241,2937,254915
-189,155,214,-196,2916,254935
-188,154,232,-150,2902,254996
-192,156,287,-159,2912,254989
-196,168,301,-148,2891,255037
-202,200,296,-225,2889,254974
-215,182,291,-149,2875,255017
-230,168,267,-133,2859,254938
-216,150,297,-152,2885,254950
-235,114,274,-173,2919,255025
-222,88,277,-146,2911,254972
-212,92,303,-161,2997,254934
-206,105,289,-197,2966,254927
-192,69,211,-144,2914,255031
-188,44,153,-131,2959,255039
-197,10,97,-101,2920,254978
-207,-9,142,-176,2914,254922
-210,-1,131,-200,2877,254896
-199,-3,130,-174,2891,255013
-188,2,183,-223,2924,255027
-173,16,171,-238,2857,254962
-164,33,114,-201,2944,254988
-167,24,103,-240,2867,255033
-164,36,59,-225,2926,254937
-163,30,60,-179,2910,255029
-200,35,51,-151,2871,255020
-216,68,71,-183,2867,255021
-212,68,83,-184,2875,254944
-223,84,95,-145,2958,255009
-199,69,41,-192,2936,255057
-212,83,87,-85,2891,255070
-210,87,39,-214,2906,255030
-232,98,72,-230,2811,254981
-230,80,74,-212,2898,255060
-219,98,95,-184,2934,254925
-191,105,122,-200,2899,255031
-246,170,183,-229,2924,255060
-228,151,87,-215,2948,255068
-228,105,71,-179,2887,255069
-236,114,101,-157,2868,254979
-256,128,73,-240,2881,255003
-269,96,138,-146,2958,254960
-258,104,134,-112,2912,254916
-235,88,212,-137,2898,254994
-214,114,202,-166,2982,255034
-221,144,236,-146,2913,255079
-207,108,218,-158,2913,254949
-224,92,243,-173,2876,254916
-228,88,247,-177,2896,254949
-234,83,265,-331,2907,255048
-241,70,285,-259,2956,254960
-206,91,307,-164,2899,255034
-173,88,310,-212,2855,254960
-159,97,246,-188,2895,254929
-150,110,249,-213,2893,255003
-173,85,202,-255,2865,254958
-183,40,209,-148,2904,255084
-174,24,178,-114,2968,255132
-173,-12,175,-248,2953,255066
-154,1,191,-210,2934,255035
-162,9,213,-241,2911,254960
-154,20,131,-184,2900,254977
-148,38,177,-202,2937,254989
-164,27,109,-146,2940,254978
-191,16,180,-97,2924,254873
-195,15,182,-165,2858,254929
-223,-27,228,-214,2964,254993
-229,-35,279,-199,2891,254976
-246,-36,266,-162,2905,255079
-236,-54,203,-174,2946,254986
-239,-52,244,-179,2887,254943
-247,-36,235,-215,2877,254925
-284,0,242,-261,2855,254941
-282,29,260,-267,2887,254985
-270,24,245,-202,2866,254919
-289,45,300,-193,2896,255028
-306,56,272,-246,2861,255083
-308,28,251,-177,2861,254983
-305,16,235,-178,2863,255022
-294,8,236,-109,2919,254944
-284,-4,218,-156,2877,254973
-276,24,234,-215,2880,255044
-276,42,165,-165,2968,255026
-271,58,229,-197,2917,254918
-265,48,148,-187,2859,255102
-268,26,104,-234,2875,254975
-255,25,51,-227,2943,255026
-268,-1,45,-236,2919,255112
-270,-22,-14,-184,2905,254956
-265,-7,46,-166,2908,254986
-270,-2,62,-119,2918,254991
-263,38,119,-187,2882,254977
-250,33,85,-247,2886,255002
-259,64,37,-221,2877,255037
-244,36,55,-180,2869,255088
-295,29,41,-94,2850,255042
-292,30,30,-160,2857,254961
-301,-15,40,-187,2896,254859
-270,-16,60,-218,2896,254989
-240,25,92,-229,2885,254920
-250,3,94,-247,2920,254970
-244,34,78,-181,2805,254981
-237,55,76,-164,2921,254978
-240,52,87,-254,2930,254974
-216,39,104,-266,2855,254926
-221,68,148,-159,2813,254886
-184,50,148,-171,2841,255058
-171,54,241,-228,2843,255093
-134,47,183,-187,2886,255006
-121,14,182,-130,2911,254974
-116,3,203,-251,2927,254994
-157,24,251,-271,2850,254977
-136,-6,211,-154,2866,254900
-102,-7,254,-144,2816,254941
-146,41,320,-166,2866,255018
-81,46,348,-186,2858,254943
-61,49,306,-147,2882,255087
-46,14,281,-194,2916,255020
-16,-2,275,-182,2916,255125
-34,-21,236,-289,2854,255014
-66,-65,224,-213,2904,254994
-66,-45,242,-188,2964,255017
-65,-48,211,-179,2968,254986
-45,-50,278,-150,2963,254996
-15,-27,184,-92,2867,255028
-15,-12,155,-162,2897,255024
10,-27,164,-240,2834,255102
-3,-17,133,-231,2924,255002
-7,-31,122,-143,2889,254975
-16,-7,152,-167,2927,254946
-14,23,155,-256,2898,254951
-20,18,209,-226,2860,254921
0,21,128,-206,2893,255083
18,24,86,-230,2924,255024
49,15,74,-152,2852,255002
35,32,27,-142,2860,254962
33,14,-5,-168,2901,254982
66,30,25,-177,2903,255108
89,40,-10,-169,2910,255107
93,41,86,-208,2838,255029
78,56,33,-171,2851,254988
69,63,46,-227,2842,254882
96,52,55,-221,2899,255020
73,43,57,-162,2819,255022
73,40,77,-194,2900,254973
98,76,100,-213,2885,254901
108,88,157,-216,2903,254914
133,131,153,-194,2925,255000
145,126,94,-189,2922,254959
139,110,90,-179,2885,254877
98,105,73,-193,2890,254882
72,85,58,-188,2918,254920
77,77,67,-205,2909,254927
78,92,90,-100,2904,254943
81,130,121,-146,2952,255008
118,171,159,-111,2958,255072
115,166,150,-161,2901,254987
120,158,129,-151,2968,254932
103,146,131,-269,2853,254985
65,132,131,-223,2830,254973
55,124,162,-118,2861,255004
50,113,189,-143,2864,255107
39,114,208,-143,2897,255002
74,120,218,-196,2938,254999
91,128,213,-110,2908,255047
106,124,173,-199,2935,255042
97,137,182,-126,2884,255038
96,112,161,-154,2879,255087
72,86,197,-113,2841,255124
49,120,198,-116,2922,255038
28,134,267,-111,2915,254974
75,137,254,-167,2934,254955
93,123,198,-120,2864,254943
136,101,168,-204,2884,255024
112,117,173,-248,2864,254973
75,110,140,-149,2850,255081
50,134,135,-208,2854,254946
39,153,122,-245,2828,255024
36,167,135,-188,2901,255039
38,178,108,-253,2937,254979
28,156,59,-179,2934,254925
36,138,9,-138,2913,255011
0,116,-12,-200,2853,254985
-48,69,-48,-217,2853,255007
-75,95,4,-218,2834,254948
-123,110,54,-180,2844,254981
-163,170,172,-226,2907,255081
-136,179,112,-193,2870,255008
-119,169,152,-175,2890,254997
-95,152,130,-180,2849,254950
-128,150,154,-232,2882,254931
-124,112,102,-284,2917,254952
-181,118,153,-219,2908,254956
-190,106,116,-255,2898,255019
-211,144,192,-210,2817,255001
-207,161,152,-100,2863,255037
-203,179,157,-196,2930,255041
-191,190,106,-280,2931,254958
-207,144,100,-112,2862,254986
-222,119,107,-143,2936,254994
-236,100,101,-211,2961,254916
-233,94,157,-197,2938,254923
-252,121,226,-210,2883,254927
-249,119,206,-179,2889,254999
-233,136,252,-254,2910,254983
-218,151,264,-114,2861,254946
-216,139,241,-94,2912,255039
-196,112,221,-185,2899,255031
-208,101,206,-176,2843,255018
-220,110,246,-185,2849,255084
-229,141,241,-195,2897,254965
-219,147,200,-139,2923,255085
-198,142,176,-202,2911,255062
-185,151,110,-235,2851,255136
-195,148,70,-223,2900,255023
-231,116,89,-124,2853,254923
-248,119,123,-214,2848,254996
-258,117,136,-217,2849,255051
-250,108,162,-132,2875,254973
-251,153,168,-230,2885,254924
-200,129,152,-285,2915,254915
-183,113,126,-181,2911,254968
-200,97,108,-177,2935,254984
-191,57,86,-58,2955,255008
-219,48,146,-143,2980,254986
-251,94,162,-146,2903,255128
-263,100,196,-166,2887,255059
-236,100,225,-309,2903,255067
-199,119,180,-196,2903,255090
-180,129,180,-168,2910,254959
-188,114,165,-197,2851,254893
-203,95,178,-87,2923,255008
-215,79,161,-167,2929,255016
-234,99,214,-177,2887,254952
-243,92,203,-214,2925,254922
-244,92,248,-200,2898,254972
-231,117,232,-186,2850,255011
-214,123,175,-194,2914,255073
-202,99,121,-185,2960,255062
-209,100,109,-233,2876,255117
-224,76,130,-153,2951,255110
-233,71,175,-69,2855,255113
-221,106,199,-149,2846,254990
-194,77,159,-162,2940,255011
-223,87,220,-157,2941,254919
-179,74,197,-162,2914,254922
-172,59,144,-172,2919,255048
-199,31,107,-172,2864,254986
-182,7,125,-160,2900,255029
-207,37,180,-81,2881,255043
-232,65,215,-210,2787,255054
-211,76,273,-280,2856,255040
-196,82,267,-188,2948,254986
-193,73,264,-160,2891,255009
-187,34,232,-209,2940,254986
-218,23,237,-160,2917,255019
-212,9,215,-257,2929,254985
-208,-2,239,-191,2882,255121
-205,26,217,-219,2898,255084
-203,59,195,-201,2928,254911
-191,61,193,-153,2987,254872
-192,94,174,-150,2916,254896
-196,77,126,-134,2885,254887
-211,32,157,-185,2847,254998
-209,6,191,-213,2884,254989
-250,14,204,-167,2812,255058
-233,22,192,-153,2866,255121
-217,30,198,-200,2897,255001
-192,46,180,-79,2908,254971
-181,86,155,-184,2904,255058
-204,99,151,-207,2931,255069
-214,51,130,-171,2876,254932
-241,38,129,-200,2873,254974
-259,24,180,-190,2920,254944
-270,-5,198,-132,2870,254994
-260,-10,253,-178,2907,254847
-219,1,195,-169,2889,255079
-214,-17,170,-161,2945,255058
-203,-25,124,-213,2903,255002
-224,-29,126,-244,2917,255073
-248,-46,160,-255,3005,255002
-257,-60,186,-286,2886,254953
-259,-53,190,-325,2964,254949
-252,-67,214,-276,2908,255004
-232,-62,212,-182,2877,255012
-225,-58,167,-120,2915,255025
-226,-78,145,-182,2951,255025
-219,-93,164,-234,2896,255030
-241,-105,157,-219,2937,254977
-262,-68,192,-144,2916,254979
-273,-38,194,-152,2906,254929
-264,-53,206,-149,2846,255066
-253,-29,187,-188,2889,255072
-224,-45,155,-109,2927,255152
-221,-93,83,-202,2839,254961
-250,-64,122,-241,2896,255006
-235,-89,94,-225,2872,254996
-270,-61,74,-167,2853,254958
-256,-43,95,-194,2898,254979
-249,-37,123,-217,2918,254965
-244,7,131,-197,2962,254987
-223,1,111,-198,2913,255001
-208,0,98,-243,2860,255075
-210,-12,54,-199,2907,255043
-217,-29,96,-173,2917,254903
-229,-34,81,-181,2949,254912
-205,-3,127,-199,2907,254978
-186,2,123,-175,2948,254995
-176,40,204,-233,2865,254887
-154,49,125,-229,2858,254965
-176,42,144,-215,2915,255014
-177,42,164,-165,2930,255058
-190,56,196,-173,2908,255087
-178,54,152,-196,2897,255008
-145,57,220,-197,2913,255008
-117,45,187,-213,2975,254933
-81,43,187,-207,2991,254967
-35,45,132,-180,2907,254947
-50,25,81,-190,2921,254963
-56,4,97,-214,2892,255002
-84,17,135,-183,2920,254961
-90,17,132,-150,2827,254971
-60,1,164,-112,2823,255048
-17,17,168,-180,2929,255012
9,53,203,-168,2871,254980
28,54,159,-216,2928,255032
28,56,144,-132,2927,254989
42,50,126,-154,2871,255011
12,45,132,-188,2847,254955
-5,52,143,-153,2800,254918
11,59,142,-120,2961,254945
33,82,182,-198,2896,255026
77,105,172,-183,2857,255028
111,86,152,-159,2928,255135
107,66,121,-183,2839,255012
109,31,154,-221,2886,255070
69,28,183,-207,2917,255078
56,38,119,-236,2903,254934
39,16,178,-306,2853,255058
37,54,212,-210,2842,255019
51,97,213,-169,2861,254997
61,97,166,-193,2961,254952
89,108,142,-141,2891,255077
107,83,101,-139,2924,255039
60,72,137,-199,2937,254981
58,51,86,-246,2852,254969
19,58,135,-159,2896,254974
16,36,153,-207,2938,254945
23,48,153,-218,2900,255085
49,61,116,-168,2918,255092
56,31,158,-199,2915,254980
65,59,140,-216,2924,254917
56,68,128,-230,2920,255079
49,82,138,-195,2946,254958
59,107,153,-170,2965,255069
70,106,137,-246,2912,255128
73,104,148,-197,2873,255056
85,88,63,-124,2833,255053
82,82,65,-179,2899,255002
89,79,41,-155,2891,254960
60,101,36,-131,2898,255097
69,94,61,-192,2818,254992
89,90,66,-199,2877,255063
100,95,79,-141,2943,255106
118,132,128,-207,2863,255032
118,152,63,-177,2879,254981
98,154,80,-184,2905,254950
85,134,86,-164,2900,254981
51,145,110,-225,2911,255114
53,119,119,-228,2899,255149
58,100,151,-169,2863,255001
51,126,194,-212,2894,254991
47,138,173,-230,2875,255038
56,133,170,-143,2856,254976
28,167,195,-94,2894,254964
2,146,162,-154,2856,255126
-23,134,144,-239,2914,255150
-40,101,143,-179,2907,255015
-12,79,152,-187,2888,255018
-18,72,199,-211,2874,254969
-34,74,183,-187,2854,254903
-22,104,217,-191,2970,254825
-36,119,163,-119,3010,254928
-47,136,219,-159,2947,254927
-58,156,184,-201,2935,255075
-84,179,209,-193,2897,255064
-57,166,213,-178,2840,254995
-65,154,211,-229,2933,255026
-33,135,150,-249,2878,254967
-42,142,175,-226,2924,254957
-35,126,189,-174,2954,255000
-64,152,179,-191,2890,254970
-104,138,152,-255,2888,255053
-109,158,159,-218,2916,255003
-118,156,170,-184,2908,254905
-136,171,200,-141,2874,255002
-122,183,188,-270,2852,254957
-110,177,154,-237,2927,254916
-98,155,121,-157,2922,254910
-136,149,143,-162,2877,255055
-183,147,110,-174,2759,255068
-211,150,112,-141,2954,255001
-213,126,133,-176,2904,255056
-234,182,161,-161,2830,254964
-242,157,139,-235,2944,254969
-250,137,117,-177,2937,255044
-249,143,106,-200,2916,254947
-248,117,60,-204,2936,254946
-268,102,51,-245,2970,254988
-270,88,68,-210,2903,255048
-281,90,51,-220,2888,255027
-289,123,126,-221,2941,255030
-277,148,34,-220,2874,255154
-282,160,48,-193,2925,255021
-276,162,83,-195,2943,255015
-296,168,123,-147,2914,255001
-307,176,101,-134,2907,255027
-279,163,148,-197,2874,255039
-264,144,176,-166,2893,255036
-265,170,189,-163,2893,255029
-231,164,169,-178,2989,255067
-235,186,167,-205,2914,255015
-217,192,177,-201,2854,255067
-207,183,171,-172,2930,255013
-261,199,213,-165,2954,254970
-248,156,201,-192,2956,254954
-237,157,270,-118,2948,254926
-212,123,227,-194,2977,254952
-197,93,254,-218,2887,254993
-194,65,250,-176,2819,254948
-200,64,246,-179,2826,255026
-214,34,211,-137,2946,255011
-253,16,215,-116,2863,254972
-269,18,177,-103,2923,254851
-273,12,219,-194,2892,254985
-278,18,181,-191,2859,254973
-241,13,160,-139,2908,254926
-238,20,94,-162,2910,254912
-269,10,106,-201,2899,254966
-261,14,145,-187,2901,254952
-301,36,168,-197,2909,255043
-312,47,216,-146,2879,255034
-305,62,273,-172,2923,255064
-278,69,253,-174,2892,255052
-268,82,271,-146,2902,255036
-262,89,265,-171,2862,255002
-256,100,263,-221,2935,254980
-256,96,214,-188,2896,255012
-271,105,212,-151,2864,254995
-249,105,204,-158,2924,254916
-258,108,260,-162,2891,254895
-251,88,243,-233,2832,254979
-223,66,231,-184,2844,255045
-206,48,209,-201,2843,255046
-194,56,197,-197,2881,255016
-194,70,149,-147,2944,255055
-211,105,141,-187,2909,255047
-198,88,131,-178,2923,255016
-192,111,161,-215,2912,255031
-188,89,106,-221,2896,255041
-194,63,143,-92,2927,254905
-193,50,100,-220,2925,255032
-201,13,117,-220,2855,254958
-217,-11,65,-188,2870,254978
-213,-10,81,-219,2879,255013
-197,0,76,-202,2837,255067
-189,30,114,-183,2919,255083
-179,43,82,-126,2906,254926
-164,49,81,-183,2892,254893
-176,10,65,-193,2925,254988
-172,15,83,-99,2896,254959
-186,-22,72,-195,2948,254875
-234,-42,99,-238,2911,254956
-195,-25,103,-232,2897,255063
-202,-12,184,-189,2947,254911
-165,35,149,-143,2946,255038
-125,37,173,-181,2927,255011
-126,22,178,-237,2924,254963
-129,37,196,-97,2892,254943
-143,15,207,-178,2876,254937
-177,11,233,-179,2911,254923
-170,-5,283,-202,2931,254954
-143,-20,277,-257,2945,254957
-124,-27,276,-202,2915,254895
-113,-23,320,-237,2935,254936
-100,4,247,-257,2937,254991
-114,15,280,-226,2898,254909
-110,16,236,-232,2934,254960
-132,28,254,-272,2887,255048
-152,33,262,-242,2938,255021
-151,48,316,-203,2861,255044
-134,39,225,-210,2876,254987
-76,13,219,-164,2949,254992
-67,-11,196,-202,2871,254996
-79,13,144,-195,2833,254958
-93,4,133,-197,2882,254941
-122,17,139,-140,2938,254900
-127,36,115,-146,2929,255093
-146,15,163,-184,2924,255075
-136,14,167,-156,2873,254944
-125,-16,147,-146,2844,255061
-140,-31,166,-217,2859,255050
-122,-59,135,-208,2897,254983
-116,-79,73,-156,2909,254998
-133,-61,84,-190,2901,255018
-141,-52,112,-207,2942,254978
-162,-28,100,-225,2922,255039
-150,-40,81,-162,2888,255093
-142,-48,92,-192,2861,254937
-159,-31,116,-165,2813,254883
-154,-43,63,-167,2913,254949
-165,-64,40,-100,2905,254951
-170,-38,27,-120,2848,255028
-174,-33,29,-172,2895,255006
-164,-6,83,-237,2895,254895
-161,21,33,-164,2924,254942
-137,-16,64,-155,2836,254939
-157,0,84,-178,2826,255004
-161,16,76,-179,2878,254940
-173,-2,107,-135,2871,254998
-159,28,133,-173,2909,255024
-124,39,166,-183,2935,254951
-105,36,196,-142,2942,254959
-79,37,194,-166,2888,255075
-51,15,200,-195,2901,255026
-51,9,190,-171,2906,255143
-91,13,223,-144,2912,255066
-82,-19,204,-182,2892,254978
-101,-17,207,-186,2918,255054
-106,-1,253,-198,2912,255028
-69,13,264,-255,2870,254933
-43,7,208,-199,2918,254939
-23,-30,244,-175,2889,255084
-16,-19,225,-205,2860,255081
-48,-21,157,-154,2896,255110
-75,-59,179,-170,2864,255092
-101,-45,174,-217,2858,254999
-96,-25,172,-237,2927,255045
-75,-19,159,-190,2925,255028
-48,-6,156,-195,2939,254968
-25,2,169,-188,2935,255072
-23,29,132,-162,2888,254921
-16,-2,62,-147,2902,254924
-22,-11,83,-149,2896,254996
-46,23,76,-177,2893,255070
-74,27,112,-111,2957,254976
-81,65,156,-223,2910,255048
-60,80,144,-161,2852,255039
-21,91,151,-157,2755,254902
-12,144,163,-218,2880,255007
5,156,138,-227,2943,254927
0,122,98,-121,2906,255029
-12,142,81,-125,2937,255044
-13,122,126,-197,2913,254943
-9,125,175,-168,2873,254985
-3,122,187,-127,2831,254949
30,119,190,-117,2898,255112
24,117,206,-182,2884,254988
39,110,187,-186,2881,254899
35,117,176,-131,2919,254894
18,127,178,-214,2915,254922
47,137,194,-235,2944,254941
58,129,162,-183,2903,254960
59,96,179,-219,2954,254967
73,84,137,-186,2924,255043
47,89,114,-168,2901,255083
42,78,59,-312,2936,255004
47,43,29,-204,2898,255028
9,77,47,-194,2862,255027
-4,117,48,-169,2789,255022
10,107,52,-152,2803,255056
26,108,92,-183,2879,255029
34,81,66,-149,2890,254986
29,74,59,-167,2900,254981
20,63,65,-139,2872,254884
-16,79,72,-200,2918,254912
-15,110,26,-228,2914,255006
-28,116,43,-202,2935,255038
0,136,46,-187,2936,255087
10,150,33,-169,2894,254999
26,161,87,-183,2938,254957
9,193,56,-49,2968,254984
7,155,65,-203,2896,254994
17,152,84,-184,2920,254971
-37,193,110,-124,2955,254941
-14,177,141,-155,2943,254942
12,165,186,-130,2897,255095
18,150,239,-195,2909,255055
58,152,293,-229,2938,255081
35,187,243,-152,2940,255092
27,192,238,-216,2919,255022
17,158,225,-232,2843,255023
-30,183,254,-210,2895,255036
-44,199,210,-199,2908,254936
-48,158,253,-210,2874,255003
-43,163,265,-200,2849,255051
-48,168,314,-195,2909,255079
-39,133,210,-239,2880,254986
-65,143,177,-196,2912,255022
-103,128,156,-225,2928,255095
-134,167,155,-186,2931,255120
-179,168,175,-115,2896,255098
-192,157,182,-203,2881,254924
-166,160,160,-238,2859,254977
-172,116,248,-190,2925,254954
-190,122,199,-178,2857,254991
-229,130,172,-195,2921,254950
-216,113,109,-190,2978,255072
-227,138,134,-192,2965,254978
-237,164,91,-220,2958,254939
-220,199,138,-235,2947,254974
-223,161,76,-169,2872,254941
-208,185,130,-193,2853,255020
-203,170,68,-190,2931,254998
-222,171,85,-219,2944,254934
-204,138,68,-227,2899,254951
-221,156,32,-222,2893,254961
-220,132,47,-238,2960,254971
-212,155,128,-165,2902,255147
-193,167,106,-145,2877,255045
-208,131,153,-224,2940,254963
-210,128,103,-177,2927,254950
-209,100,123,-214,2846,255017
-221,74,132,-138,2930,254960
-253,98,117,-161,2890,255009
-238,65,114,-179,2959,254992
-262,89,191,-216,2928,254941
-252,75,242,-182,2933,255039
-242,84,241,-211,2926,255000
-254,91,246,-245,2927,255031
-245,84,257,-229,2903,255005
-254,87,263,-146,2965,254905
-277,132,220,-163,2925,254987
-272,140,210,-150,3009,255097
-277,153,179,-211,3041,255078
-274,179,202,-203,2910,255051
-239,177,203,-193,2830,254997
-265,171,136,-170,2923,255047
-273,137,146,-191,2911,255062
-267,157,203,-208,2924,255039
-306,196,253,-216,2888,255023
-279,150,180,-170,2863,255048
-268,137,241,-180,2922,254969
-248,146,224,-112,2909,254982
-250,154,287,-203,2914,254905
-249,152,246,-145,2875,254982
-253,130,260,-222,2869,254863
-238,127,244,-170,2845,255020
-281,123,274,-156,2969,255025
-286,89,291,-200,2954,254952
-264,58,327,-129,2917,255041
-221,28,254,-207,2907,255023
-218,21,235,-211,2837,255071
-226,47,170,-234,2878,254962
-224,38,156,-194,2876,254957
-216,29,173,-206,2908,254961
-249,44,103,-169,2892,255024
-270,11,96,-203,2906,254970
-221,-17,96,-210,2826,254992
-215,-9,151,-293,2844,254973
-227,5,166,-218,2824,254926
-224,37,138,-203,2803,254946
-226,43,90,-147,2919,254978
-261,51,61,-147,2906,254931
-270,69,36,-209,2926,254957
-230,60,-8,-203,2903,254963
-238,39,92,-189,2820,254982
-234,54,153,-266,2832,255080
-228,34,229,-115,2858,255042
-213,-15,185,-117,2867,255090
-210,-16,204,-146,2983,254970
-204,-35,184,-164,2932,254975
-202,-26,156,-214,2933,255013
-200,-49,158,-137,2948,255022
-174,-25,191,-121,2856,254986
-161,-29,176,-179,2870,254947
-126,-102,177,-104,2903,255082
-126,-104,139,-154,2859,255002
-140,-102,175,-182,2894,255003
-159,-102,183,-234,2809,255069
-186,-63,136,-274,2817,255034
-181,-36,130,-248,2914,254878
-166,-39,121,-215,2875,254995
-119,-27,137,-160,2926,254979
-119,-26,108,-125,2871,255036
-121,-36,154,-161,2877,255057
-97,-51,152,-203,2922,255009
-112,-41,128,-190,2952,255031
-105,-59,92,-190,2903,254948
-91,-56,152,-151,2906,255036
-86,-42,192,-169,2935,255013
-70,-19,208,-164,2922,254975
-39,21,193,-238,2880,254881
-28,61,189,-264,2874,255015
-42,57,211,-221,2869,255012
-85,86,197,-160,2888,254953
-103,65,170,-152,2895,255057
-99,24,204,-148,2916,254970
-68,8,204,-205,2876,255033
-59,-22,267,-188,2886,254943
-11,-48,269,-117,2877,255013
-21,-46,228,-145,2866,255058
-22,-60,231,-209,2824,255002
-39,-38,190,-181,2907,254982
-63,1,163,-105,2896,255091
-68,0,128,-112,2877,255039
-76,9,164,-170,2888,255054
-72,3,107,-153,2864,254934
-57,-50,114,-185,2925,255039
-74,-45,119,-184,2897,254980
-108,-43,107,-196,2909,255002
-141,-67,135,-182,2962,255072
-133,-37,86,-207,2889,255127
-142,-46,84,-205,2862,254927
-139,-3,104,-200,2967,254875
-149,5,98,-158,2929,254935
-123,-67,58,-220,2905,254941
-104,-71,64,-215,2867,254944
-117,-73,49,-231,2861,254928
-141,-21,47,-236,2898,255026
-116,13,31,-238,2900,254981
-103,-13,68,-268,2884,255007
-91,8,97,-236,2897,255082
-128,16,86,-181,2924,255022
-111,29,144,-223,2916,255051
-74,18,157,-199,2950,254959
-90,-18,194,-209,2849,255117
-68,-14,213,-155,2887,255043
-90,17,186,-181,2864,255104
-73,31,168,-186,2874,255032
-87,50,190,-163,2814,254995
-107,55,159,-190,2851,254984
-83,6,169,-244,2857,255063
-83,-22,172,-161,2863,255069
-101,19,188,-211,2883,255073
-136,30,165,-243,2908,254994
-151,82,190,-272,2831,254964
-113,74,192,-233,2906,254982
-107,83,205,-243,2938,255030
-65,103,194,-187,2915,255085
-42,73,234,-170,2895,254999
-47,54,220,-206,2857,255010
-90,64,251,-181,2855,255013
-135,75,214,-223,2849,255078
-149,101,171,-202,2927,255103
-124,79,125,-192,2911,254963
-90,82,123,-157,2893,255014
-52,57,78,-141,2892,255049
-2,51,64,-193,2867,255012
-4,80,56,-171,2901,254941
-32,97,59,-154,2925,254886
-65,125,68,-193,2855,255097
-109,110,71,-205,2837,255091
-112,109,103,-190,2915,254929
-96,118,144,-157,2930,255038
-75,130,149,-213,2890,254898
-19,144,132,-181,2943,254892
-23,126,121,-145,2891,254981
-38,140,155,-195,2852,255001
-47,153,137,-238,2822,254984
-69,131,149,-246,2922,254996
-55,117,133,-242,2878,255038
-81,122,178,-152,2869,254995
-75,102,160,-144,2937,255075
-60,90,190,-139,2893,255086
-44,86,211,-170,2859,255027
-41,113,199,-176,2909,255068
-50,110,173,-132,2889,255051
-42,156,195,-193,2897,255005
-38,170,180,-280,2879,255099
-42,183,200,-182,2873,254927
-53,157,130,-172,2905,254966
-16,110,146,-167,2967,254946
-9,88,137,-204,2899,255052
-10,81,164,-224,2885,255113
-4,103,100,-231,2810,254997
-33,138,62,-271,2881,255018
3,140,-9,-162,2908,254953
12,132,-21,-179,2868,254961
13,96,-49,-194,2898,255002
-1,99,23,-183,2878,255194
7,70,65,-131,2971,255118
-9,66,103,-183,2887,255160
-11,93,145,-245,2784,254965
-9,125,151,-227,2830,254943
-8,136,192,-155,2876,254977
1,201,196,-170,2810,254998
25,195,121,-162,2891,254991
35,162,141,-190,2935,254999
17,182,132,-198,2869,254993
-19,162,114,-193,2918,255060
-44,136,131,-169,2922,254971
-67,161,127,-197,2841,254976
-47,163,190,-182,2864,255082
-39,188,199,-218,2861,255100
-54,164,223,-85,2890,255066
-22,174,235,-130,2889,254918
-25,200,246,-207,2912,255026
-56,195,244,-187,2917,255014
-75,217,275,-238,2888,255089
-98,242,277,-197,2868,255040
-80,261,272,-183,2877,255056
-64,261,239,-180,2892,255043
-81,249,204,-107,2899,255009
-39,232,192,-220,2868,255016
-113,247,226,-218,2830,255001
-128,217,183,-213,2870,255021
-155,223,175,-212,2879,254981
-182,228,140,-167,2904,254986
-186,236,190,-169,2896,254989
-179,216,103,-211,2853,255172
-171,177,115,-180,2926,255021
-120,142,101,-175,2935,254968
-143,148,78,-169,2962,255013
-163,123,83,-204,2930,255148
-187,153,74,-164,2843,255032
-200,179,42,-162,2874,254946
-195,182,43,-239,2901,254926
-191,186,2,-156,2835,254936
-176,144,-7,-134,2904,255022
-139,91,16,-160,2915,255068
-154,86,29,-250,2927,255149
-172,56,1,-185,2864,254987
-212,41,47,-268,2906,254926
-243,63,93,-221,2897,254987
-253,74,131,-216,2883,255175
-255,83,184,-168,2889,255026
-232,62,176,-205,2880,255082
-185,79,250,-236,2844,255114
-206,93,313,-192,2881,254995
-192,82,323,-157,2845,254949
-197,77,299,-125,2921,254941
-224,66,267,-120,2886,254861
-197,74,294,-198,2895,255049
-211,79,263,-154,2958,255111
-199,61,241,-121,2935,254995
-171,45,248,-186,2876,254874
-201,49,292,-161,2881,254978
-203,-1,258,-234,2926,255053
-250,19,302,-132,2938,255075
-251,34,310,-139,2828,255120
-231,56,341,-140,2876,254995
-214,59,251,-142,2891,255077
-220,39,272,-221,2928,254978
-196,40,264,-217,2934,255042
-214,46,232,-178,2879,255004
-217,24,215,-140,2885,254960
-215,21,188,-129,2834,255033
-214,35,161,-190,2880,255047
-185,46,192,-215,2879,255019
-198,51,128,-168,2853,255065
-194,35,89,-162,2878,255009
-156,37,92,-130,2893,254961
-196,37,61,-169,2839,254973
-197,22,86,-218,2906,254983
-224,37,56,-175,2891,254965
-253,56,77,-233,2903,255005
-233,44,26,-260,2907,255061
-250,71,30,-262,2815,254972
-211,52,-5,-244,2869,255013
-190,44,46,-173,2873,254946
-201,42,13,-209,2885,255010
-212,3,58,-220,2875,255101
-227,-4,113,-183,2861,255067
-269,26,173,-293,2798,254972
-248,21,216,-211,2873,255009
-243,16,208,-164,2883,254909
-239,4,251,-224,2855,254989
-197,16,262,-252,2834,255036
-196,13,261,-176,2839,255025
-212,-19,235,-180,2824,255073
-221,15,241,-169,2903,254993
-238,15,185,-197,2963,255025
-250,-2,251,-107,2951,255082
-254,-11,200,-145,2872,255055
-247,-62,211,-157,2830,254983
-210,-95,216,-138,2833,255039
-187,-107,152,-219,2933,255039
-203,-125,136,-222,2963,254972
-207,-101,154,-214,2883,255029
-231,-49,152,-215,2898,255012
-199,-42,113,-215,2871,254992
-194,-24,141,-188,2838,254949
-172,-9,108,-169,2848,254978
-138,-4,168,-151,2893,255031
-155,-16,136,-138,2924,255066
-165,-33,146,-200,2902,255059
-161,-56,158,-213,2924,255014
-177,-44,147,-207,2925,254969
-172,-55,142,-187,2876,254996
-156,-47,166,-195,2893,255039
-130,-55,121,-208,2886,254893
-109,-62,179,-175,2899,254942
-116,-62,146,-208,2913,255091
-135,-84,195,-198,2855,255023
-146,-99,218,-191,2961,254978
-161,-74,217,-255,2925,255045
-148,-39,223,-177,2912,255007
-163,-32,192,-193,2865,254969
-133,-14,194,-265,2867,254932
-93,10,187,-190,2907,255019
-108,17,117,-180,2806,254899
-106,-11,106,-234,2865,254900
-121,-19,101,-156,2869,254955
-178,-3,126,-163,2895,255023
-179,-15,112,-199,2855,255018
-192,-45,130,-145,2866,254985
-156,-54,128,-216,2939,254978
-133,-58,164,-192,2918,255011
-120,-72,145,-189,2871,254941
-124,-75,164,-168,2916,254966
-120,-100,186,-209,2924,254994
-157,-29,221,-238,2935,255140
-132,-29,191,-201,2928,255039
-144,6,186,-157,2901,254906
-127,34,162,-101,2922,254907
-92,22,168,-95,2891,255030
-89,18,127,-131,2855,255049
-87,-5,119,-158,2842,255114
-86,7,143,-184,2928,255082
-124,2,119,-211,2951,255034
-113,-21,137,-253,2866,255050
-86,-25,113,-201,2906,255049
-67,-28,138,-211,2895,255095
-47,4,136,-197,2866,255051
-53,-18,94,-209,2960,255043
-45,-38,81,-180,2896,255063
-35,-27,97,-250,2860,255096
-68,-8,95,-258,2828,255053
-69,14,154,-203,2862,254985
-89,-3,146,-219,2823,255045
-80,18,170,-191,2857,255049
-50,29,128,-153,2823,255080
-64,51,102,-215,2891,255014
-45,63,130,-215,2925,255016
-86,96,132,-199,2901,255001
-92,103,111,-159,2904,254960
-77,94,135,-183,2890,254991
-77,87,138,-183,2887,254999
-71,81,155,-238,2872,255011
-56,85,203,-180,2870,254982
-47,74,165,-166,2826,255058
-54,77,244,-249,2886,255060
-75,125,223,-207,2917,255030
-90,128,193,-154,2932,254981
-57,112,183,-131,2949,254976
-13,91,116,-99,2915,255105
-8,57,116,-199,2826,254857
18,13,132,-220,2930,255075
21,36,114,-158,2858,254976
27,26,146,-133,2845,255067
33,31,165,-224,2943,255065
16,58,132,-176,2845,254997
14,82,164,-170,2851,255002
26,111,130,-216,2905,254957
58,122,124,-185,2869,254938
73,105,69,-147,2855,254954
57,118,41,-135,2849,254953
41,109,23,-149,2909,254973
3,127,56,-85,2925,254979
-16,135,41,-170,2897,255050
-19,135,121,-160,2894,254911
-2,158,149,-135,2881,254931
13,179,216,-189,2899,255011
8,221,238,-150,2892,255050
-1,249,223,-205,2793,255035
-4,220,188,-163,2928,254978
-11,224,144,-132,2932,254967
-35,196,140,-202,2880,254900
-22,160,140,-231,2924,254977
-19,147,126,-179,2984,255017
-24,118,172,-217,2914,255045
22,126,105,-158,2900,255079
-8,137,110,-201,2880,255045
-16,119,139,-220,2848,255001
-20,165,172,-219,2867,254948
-60,189,141,-143,2874,254940
-43,172,146,-171,2906,254866
-51,214,161,-192,2887,254972
-72,222,169,-194,2933,255078
-46,233,194,-260,2842,255164
-29,242,154,-181,2860,254972
-42,229,212,-167,2901,254932
-56,264,236,-141,2927,254898
-78,302,211,-222,2887,254912
-72,273,211,-217,2920,254935
-93,283,212,-175,2907,254937
-100,260,209,-234,2932,254999
-80,253,190,-126,2930,254970
-114,249,199,-193,2906,255070
-118,234,200,-194,2949,255054
-136,261,183,-262,2865,254950
-188,223,134,-263,2894,255028
-164,219,154,-184,2899,254948
-172,226,100,-132,2876,255019
-167,158,110,-179,2879,255052
-144,120,88,-203,2881,254962
-159,120,58,-175,2851,255037
-168,82,101,-234,2869,254978
-183,97,70,-192,2913,255078
-199,83,5,-145,2904,255052
-175,64,88,-147,2888,254951
-175,75,93,-129,2927,254908
-181,52,188,-143,2898,254987
-162,70,206,-151,2899,254989
-185,69,210,-193,2946,254974
-173,90,229,-253,2911,254948
-201,153,214,-221,2968,255053
-215,158,136,-217,2934,255059
-185,177,173,-260,2908,254973
-187,168,154,-203,2901,254978
-190,158,161,-190,2883,254945
-168,176,168,-142,2895,254974
-190,199,158,-198,2895,254996
-217,207,231,-152,2958,254962
-239,239,200,-146,2925,254990
-247,221,167,-131,2901,254977
-225,204,217,-125,2923,254943
-230,231,225,-158,2857,254924
-226,214,222,-142,2846,254956
-199,188,223,-167,2848,254982
-204,217,183,-168,2849,255000
-223,191,185,-147,2975,254981
-260,211,185,-177,2862,255046
-280,218,130,-159,2891,254956
-276,174,142,-247,2949,255023
-284,151,137,-229,2904,255043
-270,127,110,-201,2926,254993
-267,122,123,-149,3001,254973
-276,150,133,-167,2955,254996
-281,145,124,-204,2914,255128
-286,156,180,-199,2892,255083
-305,191,90,-217,2840,254934
-282,179,113,-161,2881,255047
-281,158,102,-157,2885,255059
-265,157,149,-167,2884,255059
-224,131,170,-164,2940,255053
-219,123,197,-154,2912,255013
-212,151,176,-178,2837,254920
-218,154,139,-185,2915,255024
-206,126,143,-171,2905,255155
-185,130,106,-153,2856,255012
-179,91,77,-206,2839,254982
-154,31,164,-216,2835,254938
-158,12,178,-203,2878,254872
-143,8,191,-178,2901,254965
-146,-3,187,-92,2773,255008
-175,-41,199,-258,2876,255048
-132,2,164,-158,2885,255012
-140,-29,205,-193,2898,255018
-127,-45,190,-231,2889,254889
-119,-53,188,-201,2792,255030
-85,-101,201,-209,2818,255004
-86,-74,251,-156,2828,255031
-103,-60,249,-237,2851,255053
-127,-7,198,-151,2929,255022
-149,-36,182,-199,2920,254966
-128,-8,169,-203,2876,254942
-148,4,164,-208,2883,254927
-161,-27,152,-190,2916,255025
-128,-20,184,-176,2911,255069
-148,-10,177,-188,2856,254961
-170,12,217,-240,2901,255049
-170,36,203,-168,2866,254983
-159,51,154,-168,2881,255000
-104,30,145,-210,2945,255045
-116,9,139,-235,2918,254984
-89,7,63,-226,2878,255003
-74,-49,152,-157,2853,255075
-99,-9,112,-156,2859,255059
-94,-30,115,-163,2918,254980
-101,-52,104,-182,2884,255008
-85,-47,97,-160,2934,255044
-60,-97,121,-86,2876,254902
-57,-109,160,-95,2842,255038
-55,-153,161,-177,2878,255070
-34,-163,186,-183,2888,254924
-66,-173,223,-196,2904,254954
-77,-137,212,-198,2906,255037
-103,-83,182,-253,2889,255008
-96,-95,135,-246,2886,254997
-46,-96,165,-193,2928,254938
-43,-98,133,-140,2887,255064
-30,-120,163,-101,2863,254961
-7,-153,170,-158,2846,254992
-32,-128,230,-172,2932,254910
-58,-115,200,-183,2982,255061
-96,-77,179,-178,2932,254963
-77,-37,134,-167,2935,254994
-70,-59,137,-142,2907,255052
-104,-36,125,-210,2859,254990
-58,-52,137,-148,2959,255085
-67,-80,152,-194,2847,255044
-89,-60,216,-194,2881,255020
-106,-62,207,-174,2834,254937
-136,-13,174,-152,2884,254941
-145,-30,149,-208,2947,254894
-131,-10,143,-163,2899,254923
-136,-2,82,-159,2905,255057
-125,-71,121,-156,2910,255039
-94,-81,159,-141,2910,255042
-126,-80,180,-236,2895,255026
-128,-94,203,-208,2873,255038
-143,-87,210,-121,2800,254957
-165,-56,159,-162,2813,255013
-131,-47,170,-147,2829,255081
-111,-69,106,-135,2857,255021
-74,-65,113,-200,2875,255046
-63,-77,114,-183,2930,255038
-83,-59,163,-79,2891,255034
-61,-62,142,-150,2835,254966
-96,-45,123,-150,2917,254961
-62,-33,77,-255,2878,254952
-56,-48,98,-293,2855,255038
-79,-66,62,-224,2882,255027
-59,-82,89,-156,2902,255046
-61,-79,111,-137,2878,255011
-69,-59,170,-158,2983,255023
-85,-59,144,-184,2910,255057
-142,-13,182,-218,2921,255078
-116,6,161,-239,2906,255144
-114,-2,147,-156,2892,255002
-137,-10,112,-182,2872,254990
-128,-14,120,-220,2880,254928
-130,-27,130,-125,2911,255003
-168,4,182,-203,2882,254954
-183,22,140,-152,2903,254971
-204,43,179,-127,2899,255058
-237,70,164,-189,2883,255008
-206,97,188,-169,2852,255014
-221,94,153,-126,2891,254987
-204,42,199,-81,2961,255015
-195,17,217,-144,2928,255005
-224,26,234,-186,2915,255094
-206,18,180,-218,2873,255125
-247,82,157,-189,2922,255084
-234,102,96,-189,2914,254985
-211,119,88,-153,2878,255039
-182,103,42,-107,2922,254965
-161,83,76,-223,2910,254849
-147,58,138,-193,2843,254955
-132,44,156,-141,2867,255072
-150,12,197,-201,2930,254978
-163,74,202,-199,2828,254996
-148,119,160,-212,2895,254968
-129,70,173,-219,2946,255059
-115,88,120,-106,2851,255050
-109,37,119,-155,2852,254972
-79,10,206,-183,2861,254975
-101,52,198,-142,2863,255061
-122,36,173,-190,2889,255114
-99,89,172,-196,2919,254987
-103,76,113,-175,2859,254987
-97,101,54,-143,2893,255005
-113,146,13,-174,2879,254969
-101,98,22,-188,2914,255035
-87,57,73,-171,2834,255001
-114,81,93,-228,2850,254969
-89,46,91,-179,2937,254975
-114,25,212,-172,2913,255047
-164,167,204,-227,2907,255024
-143,198,180,-240,2898,255035
-134,143,179,-115,2892,254951
-128,196,170,-171,2959,254999
-120,187,85,-260,2940,254935
-130,152,136,-201,2896,255000
-149,157,197,-206,2827,254988
-123,210,158,-228,2879,255033
-107,157,111,-256,2918,254954
-116,183,191,-166,2911,254992
-53,220,30,-140,2905,255041
-52,135,149,-154,2921,255089
-69,181,274,-148,2892,255003
-33,194,140,-172,2934,255113
-39,119,186,-184,2938,255085
-21,168,209,-213,2917,255059
-58,179,185,-140,2917,255054
-48,197,242,-139,2939,255120
-12,225,170,-136,2860,255025
-20,179,184,-178,2846,254963
8,203,198,-208,2892,255014
-7,191,150,-221,2871,255094
-18,159,211,-162,2871,255022
-25,90,203,-216,2898,255062
-106,399,374,-190,2946,255070
-92,147,16,-170,2930,254965
190,178,139,-227,2832,254904
-329,226,530,-132,2907,255020
147,141,7,-189,2994,254914
-43,454,181,-200,2892,255020
-328,230,443,-262,2946,255012
-28,358,372,-249,2878,255045
-6,165,-583,-229,2866,255033
-273,500,944,-174,2808,254732
88,350,-240,-417,3038,255412
-219,23,330,-63,2812,254688
-73,290,-593,-220,2820,255083
-70,425,549,-103,2935,254696
-64,-359,-578,-232,2999,255135
-367,544,997,-136,2778,254956
65,194,-490,-237,2988,255041
-78,-55,299,-148,2943,254757
-57,278,589,-110,2844,255027
80,551,-358,-235,2971,255062
-43,-266,495,-181,2930,254862
-217,578,795,-193,2617,254999
-27,209,-543,-197,3109,255161
-77,123,778,-188,2896,254832
-191,246,350,-138,2847,255139
103,187,-539,-211,2904,254906
-221,173,610,-121,2879,254835
37,231,-54,-212,2926,255036
-162,79,-350,-194,2842,254935
-140,258,262,-249,2909,255044
-121,125,85,-211,2879,255118
-120,25,-47,-132,2921,255038
-101,335,193,-122,2876,254953
-231,186,-7,-201,2937,255067
4,407,333,-192,2938,254928
-162,3,-80,-152,2900,255025
-141,391,275,-132,2933,254870
-104,5,37,-147,2915,255051
-250,66,445,-179,2804,254952
-130,351,215,-232,2841,255007
-283,-71,-9,-145,2950,254907
-190,286,229,-138,2834,254902
-206,172,-46,-175,2946,255020
-243,49,117,-185,2950,255029
-139,103,195,-151,2911,255034
-210,17,85,-195,2963,255145
-159,172,150,-188,2973,254955
-257,70,272,-192,2966,255054
-241,325,-9,-165,2929,254869
-307,161,250,-140,2988,254834
-266,123,151,-146,2884,254955
-157,187,203,-106,2848,254988
-269,14,282,-248,2928,255076
-148,80,241,-200,2873,254944
-211,76,372,-161,2940,254961
-289,36,217,-194,2867,254994
-214,87,373,-189,2893,255011
-317,159,265,-220,2957,255031
-178,90,139,-187,3003,254916
-201,70,280,-180,2919,254969
-178,32,123,-204,2937,255102
-195,70,267,-213,2959,255106
-281,46,205,-159,2910,255040
-188,57,272,-133,2815,254981
-261,94,180,-172,2806,255018
-186,50,237,-249,2827,255077
-213,68,230,-255,2871,254951
-204,0,229,-191,2895,255024
-125,-68,151,-193,2840,255022
-217,-6,136,-147,2871,254966
-153,-166,137,-206,2878,255010
-249,-11,166,-225,2859,254991
-235,-97,54,-214,2896,255110
-194,-91,9,-183,2869,254987
-236,-66,-33,-192,2940,255051
-187,-85,-23,-246,2912,255040
-216,11,33,-208,2929,254947
-166,-60,68,-199,2905,255006
-168,18,69,-192,2911,254999
-202,37,130,-96,2857,255020
-177,26,113,-146,2922,255008
-217,98,146,-120,2878,255008
-167,23,138,-132,2865,254946
-185,53,151,-177,2887,254966
-148,-20,171,-237,2912,255101
-139,7,137,-179,2851,255043
-176,-15,175,-184,2876,254994
-146,-3,217,-238,2941,255112
-181,85,187,-212,2926,254978
-133,13,177,-214,2945,255052
-142,54,196,-215,2909,255053
-126,14,192,-226,2865,255046
-102,-47,183,-174,2886,254956
-109,-73,218,-145,2892,254898
-81,-111,243,-153,2886,255030
-160,-74,274,-171,2883,255015
-154,-68,212,-167,2945,255017
-136,-88,237,-196,2905,254988
-105,-70,183,-231,2921,254998
-96,-89,240,-262,2939,254938
-106,-105,211,-217,2877,255026
-114,-107,209,-171,2912,255017
-132,-134,208,-144,2913,255071
-152,-86,167,-245,2819,254972
-162,-52,46,-200,2968,254975
-116,-51,71,-179,2869,254976
-64,-32,-26,-210,2933,255089
-84,-40,56,-227,2876,255031
10,-11,12,-146,2886,254995
-10,-31,38,-186,2897,255044
-31,-16,71,-230,2918,255034
-23,17,56,-232,2950,255001
-56,-29,50,-183,2874,254986
-41,-27,87,-151,2789,255029
-42,-60,76,-209,2826,255008
-20,-66,114,-178,2889,255056
0,-125,126,-212,2898,255018
19,-120,92,-143,2831,254953
29,-100,121,-146,2830,254973
6,-92,133,-198,2793,254913
39,-28,87,-247,2868,255015
54,-61,86,-122,2891,254995
49,-90,111,-163,2895,254965
50,-67,174,-175,2902,254990
68,-115,130,-208,2852,254951
63,-100,172,-177,2821,254827
36,-107,256,-203,2845,254975
36,-64,183,-175,2847,255006
15,-78,170,-156,2855,254973
35,-44,150,-216,2841,255057
60,6,151,-190,2885,255106
-4,0,238,-138,2982,255091
54,4,146,-211,2943,254969
22,-7,240,-217,2880,255044
24,-16,244,-195,2924,255034
0,29,242,-251,2962,254994
-37,23,256,-247,2890,254959
0,-19,235,-218,2907,255019
-25,-4,251,-149,2869,255061
12,-49,261,-155,2924,255105
4,-97,232,-164,2917,255047
-23,-116,263,-178,2881,255120
-30,-125,223,-143,2861,255012
-82,-109,229,-211,2881,255056
-75,-108,142,-269,2940,255052
-92,-131,143,-133,2887,255054
-133,-129,137,-198,2813,255074
-133,-163,153,-274,2916,255024
-122,-151,95,-206,2906,254929
-116,-122,179,-234,2853,254990
-131,-80,121,-202,2851,255051
-128,-42,114,-163,2819,254932
-136,-40,49,-178,2894,254987
-119,-39,54,-167,2882,255072
-136,-46,101,-171,2852,254953
-135,-8,95,-154,2852,254911
-124,-14,5,-158,2881,255018
-156,15,87,-177,2899,255111
-140,74,34,-167,2858,255038
-173,104,29,-172,2941,255055
-197,128,69,-206,2839,255076
-170,194,17,-143,2828,254998
-161,150,53,-154,2847,255026
-126,155,29,-196,2954,255015
-116,156,-2,-139,2875,255004
-122,130,94,-82,2969,255064
-169,162,133,-132,2905,254993
-177,196,67,-199,2890,254888
-172,139,148,-200,2887,254860
-183,150,137,-237,2865,255006
-173,201,146,-222,2897,255056
-155,122,116,-222,2954,254984
-162,86,231,-145,2820,254854
-164,90,237,-163,2913,254870
-219,100,287,-191,2953,254949
-212,124,251,-246,2902,254913
-275,142,295,-228,2868,254932
-219,132,287,-211,2840,255035
-194,116,259,-171,2882,255137
-184,77,304,-210,2880,254986
-208,112,345,-257,2830,255049
-200,108,362,-229,2930,255031
-203,132,395,-212,2907,254963
-272,123,249,-179,2906,254964
-242,150,256,-127,2900,255050
-173,213,155,-170,2940,255051
-212,207,134,-159,2910,254921
-215,183,158,-214,2871,254967
-213,188,124,-191,2894,255002
-220,180,170,-192,2814,254977
-229,189,104,-206,2803,254975
-268,191,61,-170,2823,254987
-251,219,146,-185,2878,255026
-259,226,152,-207,2886,254964
-276,228,91,-182,2926,254944
-253,251,213,-242,2877,254881
-252,211,165,-190,2829,255019
-270,165,209,-161,2877,254975
-260,162,225,-210,2870,255002
-279,187,136,-156,2888,255038
-277,168,110,-207,2919,254991
-213,218,69,-255,2883,255038
-221,238,-10,-233,2911,254960
-218,181,76,-164,2765,254938
-179,169,77,-151,2850,254936
-188,164,118,-163,2831,255080
-173,134,181,-161,2889,255001
-226,177,126,-189,2943,255086
-182,139,194,-173,2969,255044
-144,173,212,-230,2863,255019
-164,193,146,-220,2873,255041
-179,150,228,-231,2867,255002
-163,190,193,-240,2776,254989
-120,231,252,-177,2807,254975
-134,213,206,-194,2910,254957
-189,255,191,-176,2919,254987
-141,231,191,-251,2908,254840
-148,204,175,-146,2885,254849
-170,190,117,-160,2866,255010
-143,157,125,-172,2842,254946
-123,157,85,-118,2877,254904
-123,197,161,-216,2870,255073
-134,209,141,-202,2908,255064
-159,262,184,-176,2916,255045
-126,253,176,-187,2897,254958
-114,225,114,-136,2914,255019
-111,190,56,-144,2968,255079
-104,171,116,-180,2954,255069
-76,120,120,-144,2904,255142
-92,88,173,-102,2884,255035
-93,123,182,-122,2866,255012
-117,104,234,-185,2877,254922
-120,138,274,-260,2873,255107
-62,166,186,-223,2913,255050
-68,146,157,-154,2870,255122
-44,112,187,-156,2823,255101
-29,87,228,-157,2843,255061
-57,76,315,-180,2872,255026
-71,93,228,-160,2837,255089
-50,92,184,-226,2843,255123
-43,131,245,-289,2874,255036
-25,165,169,-227,2917,254965
-51,116,172,-211,2935,254966
-69,101,323,-179,2942,254917
-30,113,201,-196,2901,254936
-71,110,202,-163,2939,255052
-108,133,201,-146,2942,254998
-130,170,170,-212,2920,254974
-122,140,132,-216,2945,254941
-123,131,-12,-193,2830,254983
-103,124,-31,-238,2904,254948
-135,131,87,-175,2916,254979
-109,136,-8,-106,2913,254977
-134,96,86,-189,2933,255122
-152,134,117,-240,2857,255089
-164,167,133,-219,2898,255164
-134,168,140,-206,2906,255025
-85,191,71,-213,2904,255045
-141,166,87,-120,3015,254953
-83,113,126,-143,2970,255040
-75,92,40,-186,2938,255094
-120,76,144,-180,2833,254998
-147,82,145,-200,2880,254894
-164,130,108,-202,2904,254850
-125,159,99,-153,2906,254942
-83,166,-34,-108,2863,254962
-115,114,-33,-181,2920,254945
-99,80,48,-190,2903,254971
-79,55,30,-151,2929,254985
-101,72,86,-228,2884,255105
-114,133,137,-199,2919,255028
-94,187,100,-250,2936,255060
-117,186,133,-165,2912,255042
-117,168,192,-177,2877,255035
-94,145,256,-227,2894,255055
-74,103,319,-165,2953,255126
-68,78,288,-240,2924,255040
-82,71,346,-233,2901,254916
-90,61,362,-204,2914,254952
-128,40,303,-198,2904,254985
-166,34,303,-217,3012,255006
-150,-15,250,-218,2942,254923
-164,-46,159,-266,2881,254883
-151,-93,191,-233,2855,254878
-137,-97,178,-180,2830,254931
-135,-93,199,-209,2813,255071
-149,-102,244,-192,2943,255119
-139,-24,228,-155,2983,255166
-132,-11,305,-203,2889,254988
-128,-35,294,-185,2880,255047
-132,-46,271,-185,2863,255040
-97,-109,241,-194,2948,255050
-110,-165,234,-185,2892,254915
-112,-200,191,-215,2895,255060
-128,-154,158,-196,2883,255102
-97,-109,85,-153,2835,255051
-76,-10,30,-154,2887,254963
-56,24,-112,-168,2954,254949
-76,34,-47,-200,2938,254904
-57,10,-16,-204,2899,254981
-82,-19,107,-146,2920,255021
-89,33,140,-218,2882,255084
-103,45,149,-136,2836,255091
-106,-1,177,-145,2873,255038
-95,51,210,-128,2874,255007
-88,17,106,-183,2917,255028
-57,-20,70,-182,2843,255084
-37,-31,33,-126,2872,255099
-72,-64,-11,-159,2924,254992
-103,-85,48,-198,2834,254964
-89,-89,61,-160,2801,254978
-72,-103,68,-154,2854,254902
-86,-129,30,-114,2871,254995
-66,-131,73,-186,2841,254937
-64,-124,106,-253,2919,254973
-43,-109,76,-227,2872,255059
-38,-102,103,-228,2878,255046
-81,-117,141,-193,2829,255089
-65,-129,119,-202,2867,255074
-49,-139,148,-206,2875,254990
-86,-96,115,-212,2886,254877
-50,-56,26,-199,2853,254931
-56,-79,-16,-133,2899,255009
-34,-87,45,-165,2872,255114
-23,-69,120,-201,2870,255128
-26,-34,143,-175,2868,255009
1,10,206,-166,2941,254994
-5,74,228,-272,2868,255024
15,81,237,-243,2938,255001
-2,66,265,-221,2967,255098
13,67,280,-175,2902,255070
40,33,245,-235,2872,254926
45,-14,285,-248,2892,254961
-26,-24,279,-187,2838,254980
-6,-4,303,-133,2873,255030
8,-7,271,-144,2879,254978
-54,26,237,-182,2954,254945
-29,-15,207,-197,2948,254986
-10,-99,211,-165,2866,255020
8,-103,264,-157,2859,254906
-3,-113,212,-197,2852,254935
-32,-113,218,-131,2870,254999
-26,-110,239,-141,2888,255034
-54,-68,258,-112,2908,254975
-99,-15,210,-232,2873,255020
-74,9,168,-221,2869,254907
-62,-2,114,-160,2914,255014
-81,17,161,-155,2926,254962
-99,15,148,-192,2976,255071
-113,15,137,-214,2938,255016
-125,40,117,-170,2880,255090
-169,107,113,-228,2935,255073
-160,117,-4,-183,2911,254971
-153,73,-57,-202,2905,255058
-166,51,-42,-249,2831,255046
-170,50,-1,-212,2848,254980
-168,9,-14,-189,2931,254880
-217,21,59,-187,2836,255007
-247,34,141,-162,2891,255038
-241,69,159,-259,2920,255059
-235,64,125,-279,2910,255018
-219,62,121,-151,2860,255060
-200,50,148,-129,2923,254994
-192,16,133,-174,2884,255042
-206,4,155,-221,2849,254881
-210,28,170,-149,2885,255056
-222,29,148,-210,2910,254950
-266,55,224,-144,2930,254997
-250,67,189,-168,2917,255092
-215,84,201,-210,2865,254934
-186,96,177,-215,2896,254891
-186,92,215,-231,2910,254976
-194,80,202,-174,2935,255097
-199,93,256,-208,2832,255095
-202,120,251,-204,2842,255156
-241,184,314,-219,2845,255101
-231,237,225,-207,2863,255038
-228,207,187,-188,2895,255080
-211,211,177,-232,2890,255101
-225,186,152,-248,2902,254959
-234,161,120,-285,2866,254993
-216,160,152,-245,2883,255035
-223,144,74,-238,2853,255017
-298,196,221,-156,2863,254925
-258,184,156,-190,2954,255115
-271,160,144,-232,2904,255060
-258,110,150,-212,2912,254943
-272,56,199,-182,2979,254914
-281,24,170,-158,2876,254931
-268,24,186,-199,2834,255030
-274,41,159,-247,2863,254951
-300,115,163,-235,2897,255009
-285,108,109,-167,2930,255000
-255,81,96,-179,2883,255011
-245,60,116,-168,2891,255047
-248,44,148,-255,2886,255051
-216,52,174,-250,2882,255006
-211,53,216,-153,2925,255028
-223,91,252,-186,2885,255031
-225,173,263,-166,2854,255057
-205,231,246,-185,2958,255047
-187,301,184,-169,2941,255067
-178,308,204,-172,2940,254996
-166,276,199,-186,2939,254988
-155,251,203,-227,2905,255017
-187,230,180,-204,2839,255122
-205,219,206,-183,2875,255087
-224,257,186,-186,2884,255001
-227,245,142,-235,2894,255043
-173,232,99,-123,2830,255071
-192,241,93,-211,2889,255073
-170,168,155,-164,2885,255105
-155,126,146,-117,2810,254988
-181,73,192,-160,2866,254956
-181,36,213,-204,2930,255045
-196,62,221,-270,2850,255012
-201,42,151,-249,2938,255038
-165,32,150,-202,2891,255010
-162,36,120,-266,2911,254969
-177,23,124,-204,2911,255041
-164,63,139,-185,2962,255102
-136,46,118,-203,2882,254982
-144,55,130,-224,2908,255014
-148,71,121,-187,2931,254894
-130,89,163,-192,2941,255002
-94,78,109,-169,2950,255013
-99,117,70,-175,2923,254929
-96,133,52,-237,2914,254919
-69,160,80,-174,2906,255013
-59,200,95,-163,2869,255082
-103,274,205,-210,2865,255110
-103,309,134,-165,2930,255038
-94,315,82,-168,2933,255035
-78,291,25,-115,2869,255015
-76,289,119,-161,2870,254986
-72,256,231,-104,2873,255032
-92,236,326,-217,2896,255028
-69,201,148,-251,2838,255079
-103,208,118,-147,2790,254949
-103,218,152,-195,2875,254988
-123,238,261,-199,2895,254997
-124,250,341,-142,2894,254984
-120,173,214,-180,2870,255011
-104,83,225,-186,2901,254981
-65,27,239,-209,2814,254973
-81,6,264,-169,2859,255085
-108,49,329,-159,2872,254978
-127,88,339,-168,2927,255041
-117,56,234,-283,2887,255000
-84,59,225,-210,2880,255098
-63,61,159,-244,2848,254928
-84,43,162,-213,2898,254877
-61,43,205,-245,2845,254924
-64,39,108,-140,2834,255028
-90,63,229,-199,2913,255041
-75,90,146,-217,2895,255029
-66,161,148,-167,2884,254987
-20,105,30,-148,2904,255029
-96,140,125,-149,2853,254966
-55,130,57,-236,2898,254983
-70,101,192,-226,2866,255045
-81,103,172,-190,2865,254985
-98,104,140,-156,2952,254947
-100,67,51,-229,2867,254932
-68,71,-24,-198,2819,255032
-86,36,-4,-297,2826,255017
-101,7,-10,-145,2902,255080
-114,23,59,-213,2920,255020
-95,-35,0,-247,2889,254984
-133,-48,93,-205,2910,255055
-154,0,83,-186,2901,255073
-177,37,149,-209,2872,254840
-144,35,105,-186,2894,254955
-132,44,158,-175,2900,255000
-123,55,156,-172,2906,255018
-121,39,204,-129,2902,255110
-104,26,129,-178,2861,254993
-140,31,156,-247,2856,254951
-155,33,110,-226,2876,254955
-184,41,114,-235,2877,254995
-185,59,131,-240,2854,254992
-143,77,113,-232,2847,254921
-136,39,119,-147,2896,254967
-121,40,166,-140,2997,254987
-104,15,208,-156,2926,255040
-140,38,327,-190,2862,255041
-162,66,325,-158,2946,255025
-186,50,301,-155,2879,255102
-158,9,251,-224,2880,255030
-131,4,174,-205,2833,255018
-117,-40,138,-188,2890,254964
-92,-77,97,-175,2909,254970
-56,-119,118,-207,2894,254989
-52,-142,151,-166,2865,255045
-64,-130,169,-243,2845,254990
-64,-104,170,-213,2891,254968
-74,-98,182,-233,2957,254980
-97,-78,201,-180,2930,255013
-108,-60,144,-216,2927,255063
-90,-56,175,-193,2904,255101
-59,-27,152,-184,2872,255119
-66,-1,107,-186,2994,255001
-59,4,63,-201,2968,254877
-61,50,32,-130,2865,254975
-54,26,26,-184,2863,255009
-15,61,41,-211,2812,255008
-9,51,3,-200,2847,254976
-17,-10,99,-162,2910,255044
-19,-24,220,-161,2941,254981
-50,-4,276,-195,2937,254954
-25,74,283,-258,2890,255093
-16,51,239,-161,2866,255047
2,78,249,-153,2851,254998
34,54,208,-182,2845,255087
36,44,151,-169,2900,255079
47,32,97,-164,2904,255028
15,-12,105,-279,2885,255004
-5,-43,151,-220,2967,255045
-14,-54,99,-183,2969,255059
-19,-59,52,-157,2909,255041
-5,-54,51,-140,2881,254961
16,-42,84,-158,2927,254982
38,-35,51,-215,2925,255015
48,-47,90,-209,2948,254915
85,-56,155,-125,2956,255040
68,-38,154,-183,2875,254993
37,-2,150,-170,2920,254944
35,20,163,-212,2913,254993
57,54,136,-174,2889,255043
61,42,108,-162,2855,255102
43,43,92,-196,2879,255108
40,50,136,-184,2909,255001
42,33,136,-170,2860,255032
-10,60,188,-142,2840,255065
-45,107,159,-159,2971,255035
-43,144,156,-194,2912,254990
-42,139,101,-175,2829,255016
-42,146,54,-164,2837,255042
-18,126,-15,-223,2833,255004
8,64,37,-213,2801,254872
16,68,112,-156,2844,254971
-11,62,163,-168,2879,255080
-21,61,196,-204,2863,254873
-31,69,238,-190,2863,255034
-50,90,231,-231,2886,255010
-50,77,225,-128,2807,254966
-50,22,181,-144,2869,254958
-41,-33,164,-172,2861,255010
-37,-68,186,-166,2899,255024
-57,-58,194,-181,2892,255033
-56,-55,170,-151,2844,255083
-91,-31,160,-179,2827,255074
-104,9,173,-217,2863,254967
-89,25,96,-186,2929,254955
-110,31,148,-190,2855,255005
-126,22,152,-187,2847,255035
-121,44,201,-181,2879,255082
-143,41,213,-177,2880,255030
-157,30,221,-204,2883,255030
-176,30,197,-184,2878,255064
-175,88,206,-156,2942,255061
-175,84,136,-139,2874,254950
-188,82,98,-216,2885,254914
-192,46,128,-225,2939,255005
-214,19,147,-211,2888,254952
-218,57,131,-185,2845,255028
-254,35,114,-154,2902,255024
-245,64,161,-178,2882,255064
-238,75,150,-181,2850,254961
-236,55,104,-143,2916,254905
-253,46,99,-117,2938,254921
-251,9,166,-82,2864,254931
-259,19,175,-213,2878,255052
-292,-9,216,-189,2886,255023
-294,0,193,-199,2892,255073
-293,49,182,-140,2879,254939
-297,68,156,-156,2845,255010
-294,89,111,-199,2867,255052
-293,99,82,-193,2836,255062
-295,58,122,-233,2917,255062
-301,62,240,-152,2886,255033
-341,89,195,-134,2858,255081
-364,99,227,-229,2866,254999
-391,159,288,-255,2901,254966
-376,205,254,-142,2882,254959
-357,189,153,-179,2875,255016
-323,177,155,-138,2946,254930
-327,155,148,-156,2889,255045
-336,167,212,-222,2899,255087
-335,163,215,-211,2922,255054
-378,206,248,-176,2889,255021
-360,208,209,-221,2845,255070
-372,164,235,-259,2896,255031
-355,189,133,-240,2916,255004
-362,167,126,-231,2857,255050
-338,114,105,-212,2877,255025
-336,150,195,-173,2883,254914
-324,139,175,-159,2882,254964
-321,154,223,-176,2886,255014
-306,154,251,-195,2868,255066
-291,180,224,-125,2954,255079
-261,147,180,-98,2941,254995
-242,117,171,-117,2915,255010
-239,87,146,-83,2910,255034
-250,60,187,-145,2861,255024
-243,93,203,-201,2897,255217
-262,134,196,-219,2957,255079
-248,189,190,-150,2882,255036
-214,215,184,-173,2847,254918
-202,223,125,-164,2907,254942
-179,183,171,-188,2888,254899
-169,144,177,-205,2866,254929
-171,179,183,-141,2867,254955
-175,131,140,-154,2862,254970
-173,158,209,-243,2860,255013
-152,184,219,-259,2929,254957
-155,226,207,-199,2887,255066
-128,236,134,-222,2886,255012
-103,216,191,-175,2900,254945
-104,178,189,-168,2892,255009
-112,143,235,-158,2839,254922
-143,112,251,-123,2847,254957
-141,117,264,-132,2859,255082
-169,112,221,-197,2906,255046
-163,126,192,-185,2853,255071
-137,143,64,-214,2835,254984
-146,134,41,-204,2871,255045
-137,157,43,-207,2858,254980
-151,154,88,-186,2877,255070
-159,125,169,-214,2865,255005
-160,121,159,-211,2804,255062
-162,147,204,-174,2822,255055
-161,173,108,-222,2943,255004
-140,167,60,-238,2902,254908
-88,159,35,-189,2868,254957
-83,132,6,-180,2875,255043
-59,131,59,-177,2935,255035
-41,148,72,-129,2962,254946
-62,141,101,-173,2931,254904
-68,193,193,-189,2911,254896
-73,193,152,-225,2904,255011
-28,152,82,-211,2877,255076
-25,116,168,-194,2899,254989
-33,61,174,-196,2919,255034
-18,46,248,-192,2895,254942
-28,44,223,-136,2871,254951
-37,82,292,-166,2879,255070
-48,120,288,-222,2846,255064
-61,121,221,-171,2876,255110
-34,80,201,-160,2897,255026
-15,37,187,-214,2883,255005
-19,-12,164,-185,2929,255058
-17,-36,179,-167,2901,254894
-2,-56,186,-229,2849,255008
-24,-69,192,-205,2885,254984
-44,-39,224,-198,2892,254915
-51,-22,150,-94,3018,255013
-51,-24,141,-185,2923,254901
-54,-23,97,-167,2877,254952
-103,-34,149,-194,2846,254918
-79,-65,117,-202,2814,255029
-117,-54,162,-189,2938,255074
-104,-45,141,-254,2901,254991
-98,8,126,-160,2858,255081
-99,28,48,-90,2909,255018
-85,61,51,-175,2857,254951
-90,58,-9,-207,2813,254981
-121,26,66,-188,2891,255015
-129,7,106,-182,2813,255043
-146,10,168,-222,2840,254999
-133,20,220,-213,2968,254914
-140,87,241,-139,2858,254894
-121,81,193,-213,2929,255018
-99,61,169,-164,2947,255045
-109,48,128,-121,2874,255101
-135,20,169,-117,2893,254924
-142,10,174,-150,2923,255025
-154,20,152,-162,2932,255099
-161,48,211,-183,2941,255052
-146,43,141,-228,2855,254923
-106,58,154,-187,2892,254962
-61,67,65,-175,2936,254992
-59,48,59,-169,2900,254920
-67,52,56,-170,2872,254912
-81,24,59,-160,2860,255011
-103,-17,103,-134,2963,255026
-122,10,159,-191,2924,255061
-140,50,155,-206,2934,255074
-125,54,157,-198,2887,255010
-88,29,131,-209,2962,255012
-70,43,127,-190,2889,255006
-73,43,163,-140,2850,254948
-96,30,136,-152,2858,255026
-97,36,212,-170,2900,255006
-122,37,234,-222,2935,254972
-147,70,248,-114,2948,254886
-123,92,214,-189,2938,255024
-101,52,151,-182,2926,255029
-99,24,93,-205,2842,254953
-76,12,112,-220,2877,254935
-57,-29,98,-81,2918,255029
-43,-44,134,-159,2953,255012
-55,0,104,-110,2966,255007
-76,2,106,-168,2907,254980
-64,2,159,-110,2856,254995
-46,-15,88,-184,2888,254984
-51,-24,134,-187,2904,254967
-13,-60,92,-217,2922,254952
11,-68,102,-144,2888,254994
38,-81,121,-232,2873,255120
24,-28,169,-199,2907,255017
33,21,163,-238,2930,255072
45,62,163,-214,2868,255062
40,32,116,-149,2865,254995
51,17,156,-185,2891,254982
42,10,172,-193,2872,255054
53,-18,180,-231,2882,254992
54,9,201,-152,2905,255014
43,40,241,-155,2914,255124
43,63,212,-267,2788,255013
39,87,212,-245,2826,254996
41,82,153,-221,2893,255031
16,70,145,-82,2887,255031
-13,28,148,-150,2857,254892
-13,-27,155,-200,2848,255025
-3,-49,215,-225,2898,255065
-29,-47,194,-180,2966,255072
-24,-35,173,-186,2890,255073
-10,-17,128,-240,2867,254957
6,-18,84,-219,2860,254934
13,-1,79,-97,2873,254980
11,9,21,-178,2923,254906
6,-20,-14,-113,2830,255007
-13,-16,70,-148,2788,254926
-39,-29,73,-169,2892,255013
-29,-17,24,-153,2866,255017
5,-30,38,-160,2882,255053
23,-45,28,-216,2927,254912
21,-22,19,-234,2856,254939
0,-56,85,-248,2893,254849
18,-46,93,-162,2888,254886
25,-8,112,-88,2884,254922
-24,6,90,-145,2840,255022
-30,50,129,-169,2950,255059
-3,52,117,-193,2903,255047
11,49,51,-220,2939,254965
37,46,62,-164,2922,254886
47,27,43,-221,2887,254978
43,-3,89,-196,2973,255046
42,7,185,-203,2914,254941
9,20,198,-235,2879,255064
-14,38,262,-187,2873,254962
-8,69,264,-180,2893,254983
-30,99,221,-131,2944,254946
-47,90,216,-167,2962,254991
-47,52,213,-211,2946,255025
-59,24,150,-229,2973,254993
-48,9,138,-216,2926,254977
-82,17,156,-132,2901,255017
-80,52,147,-140,2877,255143
-81,48,229,-208,2837,254966
-111,68,240,-178,2906,255026
-112,105,250,-191,2858,255050
-138,74,261,-225,2921,255002
-156,84,300,-159,2867,254940
-160,118,304,-165,2881,255058
-201,158,263,-224,2913,255033
-203,179,236,-229,2922,255046
-202,184,222,-285,2862,255026
-196,184,150,-223,2889,254971
-216,152,154,-235,2855,255037
-234,130,112,-153,2840,254978
-234,135,117,-162,2850,255018
-280,136,116,-155,2923,254955
-279,148,140,-179,2900,254908
-261,149,116,-161,2927,254947
-249,152,119,-148,2869,254977
-256,134,90,-171,2876,254982
-277,120,115,-166,2904,254972
-277,81,85,-244,2907,254831
-309,90,175,-236,2842,254947
-312,97,210,-187,2911,254999
-334,133,197,-152,2926,254958
-315,113,226,-224,2869,254952
-315,114,175,-189,2918,254958
-347,144,184,-109,2869,254916
-345,142,217,-214,2909,254986
-367,144,174,-204,2789,254918
-392,99,186,-172,2784,254964
-384,70,194,-255,2844,254945
-441,112,136,-255,2904,255086
-407,127,120,-190,2886,255101
-404,139,73,-215,2977,255099
-411,155,96,-240,2942,255070
-380,160,70,-213,2911,254950
-410,137,122,-113,2898,254917
-413,153,166,-194,2903,255014
-421,168,241,-266,2883,254980
-439,162,243,-193,2874,254905
-439,171,272,-201,2877,254989
-434,173,264,-311,2940,254973
-439,179,217,-227,2839,254899
-425,193,166,-196,2896,254912
-397,186,134,-190,2870,254951
-389,159,153,-210,2860,254986
-365,181,194,-226,2870,255039
-342,212,204,-170,2874,255014
-328,213,233,-187,2929,255010
-334,211,268,-252,2930,255050
-325,222,286,-182,2948,255053
-313,166,248,-216,2866,255043
-335,148,276,-195,2881,254960
-335,112,287,-172,2936,255076
-321,145,266,-229,2908,255036
-331,180,244,-173,2853,254936
-299,187,220,-229,2799,254984
-267,172,186,-220,2869,255027
-311,197,199,-189,2868,255025
-267,128,89,-182,2943,254949
-279,67,157,-215,2910,254974
-281,69,214,-191,2907,255064
-285,87,266,-216,2898,255010
-283,97,291,-191,2827,255130
-280,159,297,-222,2872,255068
-279,140,208,-193,2895,254999
-284,132,197,-219,2843,255091
-261,94,165,-168,2905,255040
-250,81,74,-131,2920,254985
-258,59,123,-160,2913,254965
-278,28,105,-135,2850,254884
-256,19,96,-181,2882,255064
-244,5,156,-220,2850,254979
-213,45,60,-138,2900,255015
-178,74,84,-151,2909,255003
-156,82,134,-261,2858,254933
-141,96,105,-188,2859,254901
-152,65,111,-175,2864,254920
-149,62,194,-174,2945,254944
-81,108,123,-169,2951,254965
-84,84,168,-166,2934,254964
-52,78,133,-241,2931,255014
-35,131,83,-214,2920,254946
-42,122,159,-195,2905,254996
-30,137,164,-151,2864,254930
-14,173,150,-211,2904,254893
-16,179,200,-195,2902,255029
10,181,198,-183,2895,254929
47,192,175,-192,2910,254990
39,175,153,-153,2892,255020
39,172,91,-134,2854,254993
51,134,107,-147,2878,255046
40,132,131,-139,2833,255002
31,164,175,-138,2885,255013
29,138,221,-164,2906,255078
29,175,196,-185,2962,255085
18,196,173,-159,2916,254902
22,143,166,-184,2858,254961
23,133,138,-178,2889,255012
39,107,114,-171,2906,254926
0,57,146,-234,2855,254946
14,54,154,-204,2898,255030
29,60,137,-157,2866,255005
8,58,134,-155,2831,254965
5,61,142,-183,2810,255003
23,49,90,-182,2837,254942
-6,61,102,-190,2922,254998
42,71,110,-209,2864,255068
55,47,120,-192,2882,255116
52,-29,121,-196,2948,255088
67,-54,227,-141,2938,255000
88,20,145,-107,2899,254998
96,50,162,-157,2925,255075
125,10,114,-119,2926,254997
78,30,83,-128,2856,255028
78,-25,77,-135,2871,255029
84,-54,119,-180,2903,254961
47,-37,136,-216,2942,254958
40,8,123,-154,2969,254955
31,34,134,-171,2872,254974
53,41,112,-212,2862,255016
63,30,121,-194,2938,254973
43,37,77,-146,2807,254932
11,33,103,-177,2906,254967
14,-20,157,-282,2927,254949
-26,-29,183,-180,2885,254938
-45,-39,155,-246,2900,255028
-70,-51,197,-160,2811,255040
-39,-4,150,-142,2891,255053
-30,4,172,-131,2944,254995
-37,-3,52,-246,2886,254879
-34,-35,77,-239,2846,254920
-45,-92,80,-265,2881,254997
-81,-87,108,-250,2847,255053
-91,-87,99,-194,2888,255025
-106,-51,121,-127,2857,254982
-88,-69,117,-222,2910,254908
-56,-54,139,-187,2912,254984
-49,-65,67,-130,2876,254981
-17,-94,113,-174,2903,255042
-23,-81,127,-184,2867,254999
-30,-74,192,-225,2927,254956
3,-68,153,-209,2928,255016
-26,-29,188,-206,2836,254903
1,-9,181,-249,2854,254994
0,24,126,-174,2922,254992
-16,18,95,-190,3017,254845
24,19,118,-142,2992,254959
20,-2,108,-179,2906,255039
1,16,134,-145,2936,255058
-11,27,132,-188,2924,255031
-41,44,148,-210,2928,255025
-27,21,161,-116,2909,254994
-40,32,150,-146,2848,255057
-37,10,81,-178,2835,255007
-49,-45,90,-212,2873,255021
-58,-94,110,-157,2944,254984
-58,-83,190,-148,2894,255121
-85,-72,173,-182,2863,255037
-73,-18,190,-167,2870,255127
-47,24,179,-165,2870,254988
-91,33,181,-173,2866,254975
-89,2,137,-257,2886,255033
-78,-20,183,-218,2969,255005
-98,-37,242,-152,2919,255028
-91,-82,235,-123,2861,255043
-101,-53,248,-195,2856,255005
-96,-23,271,-197,2883,255035
-70,22,203,-262,2850,255036
-80,55,160,-185,2807,255052
-81,50,30,-181,2823,255037
-76,14,39,-187,2847,254969
-111,-15,69,-169,2872,254956
-121,-27,41,-132,2877,255015
-125,-49,62,-175,2879,254875
-93,-21,73,-183,2820,255035
-61,-2,71,-149,2928,255074
-37,-20,39,-148,2933,255043
-21,-13,54,-108,2851,255024
-30,-16,78,-190,2896,255113
-52,-50,85,-223,2946,255029
-52,-76,169,-218,2883,255021
-70,-68,151,-154,2941,254957
-64,-63,212,-199,2848,255057
-50,4,191,-210,2794,254887
-55,15,148,-207,2875,254830
-45,-18,95,-198,2950,254993
-38,-18,73,-144,2890,255007
-68,-38,115,-147,2788,254976
-95,-15,175,-175,2853,254975
-127,-4,188,-140,2875,254907
-145,58,259,-161,2930,254936
-110,114,263,-184,2869,255057
-110,107,202,-217,2818,254935
-92,104,212,-185,2880,255045
-72,73,196,-145,2904,255081
-82,78,237,-183,2885,255133
-110,88,220,-179,2884,254820
-128,116,243,-171,2896,254935
-145,183,279,-144,2892,255049
-152,219,251,-215,2924,255036
-133,234,162,-208,2879,254980
-127,169,132,-179,2872,254971
-112,142,103,-137,2846,254968
-111,135,104,-142,2897,254984
-116,83,97,-176,2870,254964
-127,76,153,-153,2847,254999
-133,141,159,-118,2810,255124
-130,173,110,-122,2831,255018
-134,184,81,-207,2882,255060
-133,181,41,-191,2949,255023
-144,144,27,-155,2822,255017
-160,117,80,-183,2846,255010
-189,118,135,-191,2910,255087
-188,101,166,-247,3005,255140
-191,121,176,-202,2931,255023
-196,163,199,-153,2915,255123
-186,159,136,-132,2925,255026
-205,141,127,-119,2950,254869
-228,158,181,-158,2964,254926
-265,145,170,-216,2974,255041
-292,114,248,-240,2881,254981
-322,130,310,-174,2894,254969
-328,156,311,-166,2910,254945
-327,209,293,-149,2998,254956
-339,211,216,-112,2978,254897
-325,165,190,-172,2952,254950
-327,122,168,-174,2909,254985
-348,72,174,-161,2843,255033
-363,55,178,-126,2797,255002
-378,46,205,-195,2888,254975
-391,83,210,-237,2869,255022
-367,104,250,-260,2891,255045
-347,134,168,-204,2871,254982
-330,121,124,-163,2824,254950
-321,69,145,-206,2877,254941
-334,54,119,-217,2954,254857
-333,37,186,-216,2860,254909
-334,53,230,-178,2912,255012
-345,121,283,-181,2896,254986
-316,189,267,-159,2932,255012
-299,183,179,-161,2903,255041
-293,164,190,-221,2899,255013
-313,170,141,-234,2905,254908
-349,138,149,-277,2826,254963
-345,121,177,-182,2846,254934
-366,112,212,-149,2887,255020
-389,119,257,-163,2969,254935
-347,182,221,-256,2852,255012
-334,182,178,-198,2889,255018
-332,175,160,-200,2843,255115
-339,183,130,-197,2883,255028
-369,144,141,-226,2933,255011
-370,161,157,-208,2890,254957
-391,172,137,-214,2919,254935
-392,191,169,-151,2953,254969
-378,170,138,-195,3025,255084
-352,160,138,-226,2966,255109
-321,126,111,-183,2895,254957
-326,95,148,-231,2914,254931
-324,76,154,-228,2915,255000
-327,54,215,-205,2950,254984
-338,74,223,-130,2948,255055
-345,142,303,-206,2939,254977
-324,177,258,-188,2960,254932
-302,203,198,-200,2876,254921
-289,160,151,-186,2860,254958
-271,156,112,-191,2852,255057
-276,117,94,-157,2875,255089
-268,80,108,-131,2863,255053
-256,75,186,-178,2902,254941
-274,79,245,-209,2893,254988
-238,115,254,-259,2910,254967
-194,106,261,-183,2884,255039
-168,119,250,-114,2871,255038
-168,96,258,-157,2827,255048
-162,61,278,-170,2863,254905
-162,45,286,-257,2908,255023
-170,34,318,-176,2906,255022
-154,72,307,-174,2881,255003
-142,84,230,-136,2870,255055
-106,86,151,-111,2840,255003
-79,101,127,-238,2945,254941
-82,78,39,-225,2954,254937
-78,48,32,-231,2916,254988
-68,-12,2,-220,2945,255037
-81,-17,26,-239,2895,255033
-90,-20,60,-162,2918,255114
-60,-29,43,-132,2862,255057
1,-48,38,-222,2915,255006
-6,-7,53,-178,2868,255023
33,12,40,-162,2898,255028
39,-18,86,-67,2754,255030
46,14,98,-178,2921,255168
36,44,148,-183,2969,255038
22,78,206,-183,2889,254991
42,104,210,-205,2932,254970
79,97,185,-274,2930,254938
109,127,203,-208,2961,254987
117,112,125,-211,2894,255040
112,90,150,-227,2909,254957
139,78,149,-173,2908,255085
102,117,163,-188,2911,255055
94,130,179,-157,2922,254988
113,175,201,-157,2917,254970
127,185,146,-242,2888,254984
162,170,171,-237,2899,254949
155,153,88,-168,2824,254946
149,110,91,-164,2909,254969
143,81,92,-194,2836,254980
112,116,134,-191,2841,255031
101,118,117,-220,2936,255066
89,135,134,-208,2890,255032
128,100,90,-183,2933,254994
80,143,112,-217,2906,255018
101,106,63,-160,2890,254873
86,68,67,-178,2864,255043
81,44,106,-250,2908,255035
60,72,149,-219,2895,254985
55,120,154,-213,2873,255060
81,104,179,-292,2916,254952
69,136,123,-241,2917,254929
75,139,112,-218,2902,254957
90,114,43,-216,2937,254971
69,117,54,-192,2912,254935
78,76,62,-140,2900,255014
63,82,90,-160,2869,254808
63,67,65,-212,2888,254902
81,78,108,-207,2882,255002
103,57,52,-173,2825,255082
83,50,64,-210,2859,254926
87,17,2,-206,2927,255063
66,-20,68,-115,2915,255060
66,-44,99,-173,2912,254995
24,-47,179,-245,2889,254938
15,-33,193,-198,2873,254983
28,-8,234,-204,2886,254934
7,-12,233,-164,2864,254904
10,16,239,-160,2888,255031
8,-9,176,-198,2826,254994
-43,-52,186,-239,2867,254948
-45,-98,238,-202,2887,254959
-83,-61,238,-185,2889,255006
-112,-56,266,-171,2894,254925
-74,-20,278,-209,2905,254910
-83,2,194,-150,2964,254977
-77,0,150,-170,2964,255035
-76,18,102,-125,2877,255022
-88,17,54,-210,2897,255096
-98,1,85,-210,2963,254979
-119,26,110,-200,2917,254834
-137,60,153,-101,2906,254880
-138,85,183,-183,2933,254957
-137,129,190,-169,2952,254948
-130,142,182,-173,2929,255024
-126,131,152,-171,2830,255041
-145,102,157,-140,2855,255088
-141,82,201,-156,2899,254978
-156,54,193,-133,2887,254963
-163,57,195,-156,2895,255153
-160,37,199,-115,2823,255028
-149,35,184,-115,2827,254894
-151,29,141,-142,2892,254974
-141,18,90,-185,2917,255017
-151,16,110,-195,2935,255003
-158,6,110,-226,2876,255014
-166,15,124,-228,2934,254875
-164,-4,76,-181,2886,254908
-183,-20,122,-227,2931,255036
-179,5,79,-210,2924,255054
-191,7,74,-158,2838,254995
-194,-29,24,-191,2889,255012
-193,-77,78,-277,2849,255029
-205,-78,107,-223,2840,254942
-201,-72,129,-235,2952,254973
-185,-62,114,-192,2926,254952
-191,-3,162,-178,2830,255002
-169,20,135,-167,2949,254928
-178,30,134,-146,2908,255022
-204,36,126,-198,2895,255027
-215,10,138,-270,2860,255058
-208,-22,184,-259,2870,254985
-198,-40,214,-216,2923,255006
-197,-27,230,-225,2946,255107
-160,-8,209,-239,2910,255130
-161,23,188,-189,2910,255040
-141,43,124,-207,2901,255035
-144,12,97,-199,2883,255078
-141,-10,92,-195,2894,255007
-160,6,136,-125,2884,254945
-151,-20,113,-217,2919,254989
-153,3,168,-193,2912,254992
-119,5,151,-147,2847,255027
-106,0,189,-184,2907,255084
-76,36,132,-186,2844,255016
-72,30,112,-203,2888,255078
-69,2,131,-223,2898,254967
-94,17,195,-230,2841,254994
-87,19,179,-255,2893,254977
-111,32,221,-169,2907,255065
-88,52,234,-150,2861,255025
-83,116,248,-170,2839,255013
-93,103,201,-186,2879,255140
-78,103,174,-128,2890,254936
-86,111,182,-141,2856,255079
-94,76,180,-119,2872,255036
-112,69,196,-121,2925,255015
-147,95,219,-212,2914,254937
-117,101,183,-271,2918,255032
-123,131,208,-116,2877,255007
-136,115,137,-126,2943,255071
-132,110,152,-240,2979,254989
-130,52,136,-147,2962,254980
-108,24,178,-147,2980,255054
-163,24,201,-173,2918,255054
-168,24,176,-140,2873,254900
-149,24,214,-116,2840,254894
-161,35,228,-191,2792,254971
-163,30,165,-150,2904,255032
-160,15,173,-145,2951,254990
-150,-7,111,-181,2908,255050
-170,-1,154,-181,2942,255021
-151,13,149,-191,2868,255051
-181,8,116,-215,2872,254997
-159,38,128,-212,2895,255112
-159,73,143,-219,2849,254992
-180,74,100,-170,2899,255070
-171,109,91,-157,2892,255012
-194,102,119,-194,2845,254973
-191,113,152,-161,2882,255024
-199,146,103,-123,2879,254980
-218,157,102,-201,2890,255021
-187,167,159,-193,2929,254990
-207,174,119,-231,2907,255033
-226,181,100,-182,2925,255025
-231,157,164,-159,2853,254962
-235,145,168,-228,2905,254902
-253,128,203,-176,2958,255043
-261,99,226,-232,2864,255089
-257,125,240,-249,2888,255083
-255,104,252,-198,2903,254939
-259,108,232,-157,2897,254969
-264,106,210,-136,2855,255070
-270,50,211,-173,2873,254971
-297,39,210,-179,2866,255008
-311,61,206,-178,2853,255040
-312,52,178,-175,2932,254931
-314,35,213,-176,2809,254888
-279,72,223,-126,2840,254991
-279,68,121,-155,2862,255045
-285,56,165,-189,2870,255003
-272,42,126,-192,2802,255155
-298,38,155,-232,2903,254925
-299,20,173,-218,2914,254926
-321,20,172,-163,2959,255030
-304,61,197,-191,2890,255028
-286,117,242,-182,2908,255076
-271,110,197,-148,3005,254989
-267,161,229,-182,2926,254940
-272,175,162,-152,2892,255026
-282,170,235,-194,2938,254980
-277,192,225,-218,2917,255036
-313,197,207,-218,2898,255013
-297,181,252,-147,2896,255051
-289,211,263,-186,2858,255045
-292,210,186,-199,2861,254984
-302,186,207,-165,2893,254960
-292,150,184,-185,2904,254923
-310,125,245,-165,2922,255048
-315,98,222,-195,2859,255029
-319,112,230,-179,2924,255143
-326,90,216,-183,2954,255034
-315,116,231,-184,2859,254972
-299,121,140,-107,2896,255017
-313,113,97,-177,2896,254937
-285,86,77,-191,2907,255023
-303,107,98,-181,2913,255119
-305,84,91,-182,2895,255014
-290,93,96,-203,2875,254998
-279,126,139,-209,2917,255020
-225,159,118,-196,2888,255015
-211,157,127,-131,2852,255016
-191,118,104,-145,2913,254998
-177,123,114,-149,2868,255031
-176,101,106,-147,2912,254982
-158,103,136,-144,2886,255059
-150,131,150,-178,2842,255078
-153,121,136,-197,2862,255035
-115,156,174,-174,2943,255004
-102,142,47,-226,2907,255023
-132,133,92,-227,2836,255032
-73,100,54,-211,2891,255052
-121,70,132,-214,2961,254952
-100,17,86,-223,2903,255081
-115,-17,157,-209,2843,254976
-91,6,168,-262,2855,255017
-60,7,232,-223,2909,254937
-31,19,155,-207,2876,255009
-53,38,250,-234,2878,255048
-44,25,209,-253,2844,255074
-54,43,261,-210,2883,255014
-64,25,269,-209,2898,254952
-43,22,259,-237,2877,255095
-13,44,266,-193,2951,255036
-2,86,219,-193,2862,255052
16,108,165,-192,2927,254953
3,102,148,-235,2836,254948
14,113,172,-178,2864,255051
28,110,145,-189,2831,255022
25,92,143,-132,2841,254984
42,120,112,-155,2853,255106
43,141,131,-193,2863,254992
45,176,68,-202,2885,255024
81,161,45,-137,2953,255084
110,124,22,-146,2960,254868
71,139,56,-204,2849,254929
81,89,78,-176,2912,254959
87,68,85,-235,2944,255008
86,56,105,-166,2914,255099
111,76,139,-139,2928,254961
151,135,159,-173,2959,254930
148,80,71,-231,2920,254907
159,41,123,-231,2932,254960
141,19,108,-238,2885,254947
113,-8,88,-127,2881,254957
137,-30,90,-141,2903,255100
136,-19,108,-230,2912,254877
155,16,93,-222,2899,254975
173,41,126,-198,2889,254958
177,58,97,-195,2857,255017
176,67,118,-233,2893,255026
173,46,135,-238,2906,255028
148,49,156,-196,2882,255047
133,46,164,-186,2856,255064
122,57,149,-183,2890,255015
128,126,181,-207,2929,255024
141,122,85,-213,2940,255002
122,94,85,-155,2971,254976
131,102,69,-201,2952,255010
96,74,74,-174,2927,254985
71,60,90,-195,2863,254969
38,62,157,-132,2917,255030
37,56,183,-150,2929,254958
40,87,240,-179,2908,254989
62,116,190,-192,2898,254979
75,91,108,-203,2905,255111
68,44,136,-206,2858,254843
65,16,126,-256,2864,254853
42,-7,130,-181,2857,254940
29,-31,130,-161,2880,254995
41,-21,143,-193,2893,255005
33,19,183,-183,2856,254988
51,45,155,-228,2847,254928
56,41,116,-198,2813,254906
62,49,129,-201,2871,254950
52,46,105,-188,2812,254945
12,8,115,-155,2838,254992
14,-8,164,-154,2865,254986
18,14,189,-146,2881,255031
-17,36,229,-164,2916,255022
7,69,212,-145,2878,254919
-8,55,161,-213,2933,255006
-30,40,150,-186,2916,255046
-39,39,167,-169,2905,255021
-81,42,72,-191,2887,255003
-126,31,130,-128,2892,254976
-126,23,119,-246,2865,254933
-144,62,114,-206,2872,254941
-143,64,106,-194,2973,254819
-134,54,75,-132,2895,254951
-126,45,92,-191,2854,255078
-128,20,68,-228,2903,255078
-160,-15,72,-163,2919,255022
-170,-24,106,-192,2886,254970
-183,8,99,-190,2848,255061
-196,12,136,-239,2824,255005
-159,54,123,-228,2729,254908
