Vx,Vy,Vz,Ax,Ay,Az
-94,127,265,7306,-148,259569
-92,146,167,7304,-114,259545
-87,184,141,7248,-105,259571
-90,188,80,7231,-62,259560
-68,196,33,7250,-130,259594
-62,151,53,7192,-166,259568
-64,93,148,7222,-117,259616
-5,81,142,7235,-127,259694
45,96,27,7246,-96,259647
13,95,-80,7184,-141,259565
16,85,-56,7226,-157,259607
30,96,-83,7212,-148,259672
15,90,-131,7231,-91,259467
16,76,-54,7288,-119,259558
14,8,102,7335,-155,259504
37,-8,134,7212,-130,259536
76,41,85,7203,-157,259705
21,83,15,7273,-89,259584
20,106,-15,7296,-101,259605
12,126,-36,7207,-116,259557
-12,160,-27,7251,-114,259579
-35,140,50,7236,-137,259720
-28,109,172,7183,-76,259631
19,91,261,7202,-78,259713
19,87,218,7240,-51,259650
-7,104,194,7188,-88,259672
-44,131,171,7221,-91,259617
-99,159,92,7174,-94,259716
-104,174,29,7322,-152,259748
-129,151,99,7213,-135,259686
-138,114,239,7227,-133,259699
-116,128,215,7187,-191,259652
-108,139,83,7149,-120,259593
-137,128,35,7174,-133,259596
-154,113,51,7234,-80,259688
-168,100,-14,7245,-59,259573
-178,124,-73,7145,-31,259511
-186,123,22,7131,-99,259561
-172,70,153,7208,-138,259577
-114,41,182,7155,-101,259582
-119,31,123,7219,-90,259552
-131,29,107,7231,-58,259555
-124,42,148,7225,-48,259537
-144,32,118,7219,-104,259679
-153,38,112,7213,-68,259697
-155,32,211,7269,-85,259709
-140,26,328,7233,-131,259709
-85,39,319,7273,-164,259584
-59,69,221,7305,-159,259560
-72,78,137,7252,-144,259639
-63,101,96,7206,-78,259502
-68,121,30,7272,-166,259595
-79,123,-7,7244,-151,259624
-92,104,117,7246,-173,259649
-71,77,199,7261,-144,259676
5,88,157,7280,-96,259638
35,106,96,7318,-112,259665
29,131,72,7305,-110,259655
16,166,52,7298,-114,259658
-6,180,-22,7263,-140,259558
-18,191,-4,7263,-64,259552
-50,166,107,7241,-67,259576
-43,160,188,7251,-180,259541
-2,173,195,7209,-159,259595
-20,145,190,7214,-102,259541
3,157,148,7230,-105,259558
45,189,58,7227,-145,259587
9,224,-42,7271,-145,259692
-10,196,-85,7283,-136,259535
-10,161,23,7159,-138,259573
-10,119,85,7250,-143,259538
-3,114,66,7250,-149,259549
-27,112,34,7245,-126,259524
-48,92,43,7242,-92,259640
-66,86,-15,7211,-33,259722
-99,98,-90,7236,-91,259596
-127,105,-107,7280,-73,259503
-132,91,-10,7320,-111,259583
-133,67,95,7287,-80,259578
-106,49,68,7226,-132,259589
-99,54,60,7258,-142,259667
-114,67,74,7264,-200,259677
-117,74,41,7218,-216,259658
-163,65,-22,7250,-129,259520
-196,68,40,7150,-89,259580
-207,58,159,7214,-56,259525
-182,65,188,7264,-71,259535
-149,97,182,7221,-90,259567
-144,99,211,7182,-45,259676
-143,103,216,7234,-112,259631
-161,108,199,7285,-121,259512
-186,135,154,7184,-89,259575
-200,143,210,7212,-45,259596
-198,143,310,7232,-97,259519
-173,146,343,7242,-152,259576
-115,176,287,7260,-146,259567
-110,175,195,7260,-111,259523
-109,172,207,7213,-130,259639
-75,167,153,7207,-66,259549
-105,145,45,7226,-90,259578
-127,136,97,7202,-110,259668
-110,134,232,7213,-132,259642
-99,117,218,7202,-174,259617
-88,130,132,7236,-111,259626
-79,136,73,7227,-120,259587
-59,143,26,7261,-159,259663
-45,148,-106,7245,-46,259660
-57,144,-188,7207,-114,259573
-64,119,-122,7218,-182,259668
-64,101,-4,7238,-122,259679
-36,132,46,7255,-242,259635
18,180,44,7257,-109,259581
15,188,18,7188,-138,259586
40,181,59,7263,-157,259624
45,174,1,7300,-124,259580
26,180,-83,7249,-70,259618
31,203,-11,7254,-118,259558
49,195,139,7246,-88,259580
1,210,211,7179,-116,259696
55,232,196,7124,-84,259582
29,255,251,7242,-94,259599
16,263,184,7207,-197,259545
28,279,91,7215,-195,259626
-59,247,-4,7216,-132,259645
-90,244,43,7220,-82,259589
-83,218,61,7195,-80,259576
-86,220,108,7265,-154,259526
-74,227,114,7211,-167,259647
-70,219,162,7170,-125,259680
-70,206,142,7212,-97,259609
-60,221,54,7258,-103,259517
-109,232,-45,7195,-142,259519
-130,227,-49,7219,-169,259532
-163,207,37,7185,-83,259545
-165,206,55,7257,-51,259467
-162,252,59,7223,-68,259612
-174,267,73,7249,-49,259663
-148,245,69,7219,-68,259634
-147,221,19,7263,-140,259679
-195,224,43,7289,-145,259576
-212,246,138,7234,-104,259472
-197,231,209,7185,-83,259623
-232,203,230,7222,-104,259618
-202,204,236,7237,-94,259635
-170,221,283,7143,-95,259680
-201,215,224,7188,-118,259549
-136,202,79,7218,-106,259504
-201,180,56,7254,-47,259536
-216,165,140,7254,-82,259643
-203,164,198,7285,-116,259642
-191,171,246,7273,-138,259616
-185,185,236,7227,-167,259609
-162,199,248,7233,-107,259612
-147,197,279,7200,-95,259514
-127,197,198,7225,-161,259652
-142,182,180,7282,-212,259625
-168,183,266,7323,-88,259602
-159,190,329,7191,-105,259654
-170,200,327,7188,-85,259638
-168,244,271,7176,-166,259562
-153,296,209,7179,-129,259571
-133,311,64,7234,-53,259608
-136,282,-76,7251,-92,259586
-159,239,-83,7203,-191,259637
-149,207,8,7264,-108,259539
-128,192,38,7251,-141,259499
-125,207,48,7287,-82,259611
-121,224,73,7280,-145,259718
-116,249,57,7177,-153,259570
-114,258,-38,7186,-110,259627
-128,246,-159,7197,-56,259697
-146,188,-216,7206,-136,259532
-157,170,-117,7230,-105,259584
-172,172,-36,7202,-74,259551
-171,167,-61,7271,-165,259544
-160,206,-53,7249,-134,259633
-154,221,-30,7239,-140,259634
-115,226,-47,7256,-108,259615
-117,198,-146,7195,-157,259573
-155,191,-145,7192,-147,259590
-160,176,-95,7223,-76,259634
-152,187,-6,7222,-59,259549
-176,178,79,7237,-69,259603
-164,181,182,7190,-96,259626
-179,208,223,7223,-141,259629
-145,227,166,7198,-92,259607
-164,206,146,7132,-99,259601
-205,181,184,7220,-113,259566
-187,171,241,7217,-120,259637
-203,164,265,7246,-145,259643
-226,182,338,7250,-126,259525
-204,203,416,7260,-126,259532
-158,233,412,7242,-151,259560
-143,257,319,7219,-171,259550
-167,257,227,7284,-71,259521
-183,224,300,7234,-80,259530
-170,184,324,7223,-127,259572
-150,176,363,7337,-123,259566
-158,185,372,7262,-179,259603
-144,254,371,7232,-150,259671
-125,299,294,7189,-65,259620
-74,308,166,7212,-158,259639
-61,268,50,7252,-117,259506
-91,210,34,7280,-146,259499
-50,192,70,7229,-132,259616
-49,164,10,7249,-80,259587
-43,148,-20,7214,-115,259577
-4,175,14,7255,-107,259549
5,226,-56,7250,-37,259686
38,286,-242,7196,-36,259595
69,281,-330,7196,-89,259541
45,219,-254,7203,-83,259537
87,159,-180,7220,-120,259556
82,150,-136,7198,-127,259613
51,171,-47,7210,-152,259517
79,203,96,7203,-84,259511
100,210,124,7291,-73,259496
155,224,35,7277,-78,259494
146,211,-21,7243,-82,259601
128,181,43,7160,-106,259533
164,157,137,7221,-203,259565
170,129,190,7238,-163,259662
162,126,243,7206,-196,259638
141,173,405,7185,-117,259551
164,204,377,7224,-141,259564
179,217,252,7231,-132,259595
140,181,186,7198,-87,259648
114,88,197,7210,-148,259559
149,62,197,7179,-139,259586
134,61,178,7232,-94,259603
108,71,199,7246,-83,259585
106,108,282,7199,-167,259695
106,141,253,7244,-123,259586
102,191,99,7188,-81,259639
96,199,-20,7264,-123,259527
51,171,-20,7288,-63,259600
69,165,-34,7214,-151,259577
43,140,-35,7109,-109,259716
8,136,33,7188,-119,259622
-2,152,101,7220,-151,259606
-23,154,48,7237,-77,259581
-36,148,-13,7210,-48,259656
-80,125,-13,7244,-43,259553
-107,77,-19,7288,-79,259502
-77,46,-34,7271,-84,259573
-91,17,-2,7246,-64,259585
-121,-9,50,7350,-83,259664
-101,1,122,7237,-175,259644
-89,0,65,7226,-120,259627
-135,30,-14,7283,-213,259678
-135,30,-45,7268,-116,259615
-179,22,-25,7205,-46,259537
-171,-4,-26,7158,-63,259480
-189,-21,4,7219,-168,259604
-222,-23,92,7245,-175,259693
-212,-2,133,7178,-114,259550
-206,31,101,7145,-74,259604
-224,48,46,7221,-141,259611
-248,76,63,7286,-144,259729
-278,65,148,7269,-99,259742
-263,23,180,7335,-114,259663
-274,-26,244,7287,-152,259575
-285,-29,400,7280,-105,259598
-278,9,457,7250,-147,259656
-288,45,370,7278,-112,259701
-292,85,299,7228,-77,259560
-322,96,278,7237,-106,259530
-325,83,213,7233,-82,259579
-317,70,156,7219,-125,259574
-351,29,170,7229,-71,259565
-354,23,292,7227,-109,259620
-347,53,295,7229,-62,259643
-314,106,169,7248,-185,259567
-305,143,42,7319,-115,259575
-328,115,10,7277,-123,259584
-313,56,-20,7244,-187,259648
-301,-11,-35,7234,-205,259625
-324,-70,-9,7209,-144,259649
-346,-72,127,7223,-116,259575
-317,-49,135,7148,-119,259712
-317,-17,30,7227,-145,259668
-317,12,-42,7242,-76,259585
-314,41,-59,7257,-62,259543
-321,53,-135,7226,-139,259540
-269,58,-173,7296,-77,259474
-292,-6,-83,7235,-122,259543
-275,-47,101,7255,-120,259640
-242,-45,221,7250,-133,259666
-248,-21,180,7225,-166,259584
-244,-9,119,7230,-94,259589
-253,-22,132,7312,-146,259610
-232,-29,125,7243,-95,259531
-226,-68,-17,7229,-163,259622
-227,-91,-32,7226,-90,259591
-220,-92,95,7181,-97,259686
-181,-64,147,7270,-120,259620
-184,-14,106,7283,-94,259634
-182,34,96,7239,-116,259615
-185,52,136,7213,-55,259658
-190,59,149,7242,-71,259649
-125,53,191,7273,-121,259617
-133,10,225,7201,-142,259539
-103,16,337,7203,-116,259608
-58,40,378,7225,-83,259541
-44,41,293,7221,-89,259592
-57,64,233,7179,-138,259563
-79,86,252,7136,-156,259620
-93,103,181,7152,-129,259688
-80,108,86,7220,-206,259630
-77,60,148,7143,-213,259554
-59,56,278,7189,-114,259584
-9,100,234,7228,-126,259537
27,154,107,7315,-129,259517
31,184,31,7228,-84,259508
27,156,26,7294,-32,259549
38,160,-69,7277,-68,259617
46,130,-149,7196,-123,259565
24,93,-75,7188,-108,259553
69,74,23,7236,-66,259646
102,80,-33,7199,-115,259542
102,141,-89,7185,-147,259474
95,195,-95,7227,-149,259605
100,214,-137,7219,-161,259619
123,229,-157,7214,-116,259561
100,242,-89,7154,-252,259690
94,197,14,7261,-220,259689
109,179,156,7198,-87,259597
135,250,219,7197,-110,259626
123,302,152,7273,-155,259758
113,345,139,7210,-162,259541
95,365,162,7204,-116,259579
88,376,97,7212,-120,259557
97,349,46,7204,-74,259574
82,324,160,7254,-87,259618
115,277,275,7195,-150,259625
142,308,285,7244,-157,259642
125,346,234,7196,-134,259622
122,383,208,7222,-103,259653
111,389,180,7245,-91,259629
75,382,84,7254,-68,259618
73,361,32,7242,-144,259606
34,327,103,7217,-71,259700
53,297,176,7257,-104,259725
91,311,192,7240,-133,259604
62,335,164,7204,-157,259605
47,366,198,7235,-138,259547
40,383,159,7204,-136,259522
29,382,35,7189,-116,259546
17,340,-2,7262,-96,259607
-32,282,104,7243,-88,259706
-15,242,186,7263,-188,259666
21,254,184,7272,-169,259602
-12,284,166,7255,-78,259556
-39,295,173,7250,-86,259602
-41,301,183,7260,-140,259406
-66,326,72,7225,-96,259619
-78,360,-7,7206,-88,259631
-122,346,61,7247,-214,259663
-110,311,106,7215,-135,259548
-87,315,78,7187,-137,259569
-114,326,16,7186,-134,259555
-134,333,10,7188,-138,259567
-157,333,-44,7234,-124,259504
-188,344,-83,7231,-144,259558
-212,332,-127,7172,-81,259642
-230,334,-53,7232,-107,259767
-229,337,-7,7227,-147,259653
-205,351,-22,7275,-215,259601
-221,330,-22,7246,-168,259612
-221,309,67,7262,-108,259658
-238,309,100,7269,-138,259622
-250,310,52,7206,-106,259584
-269,281,68,7200,-92,259489
-278,251,201,7239,-63,259547
-248,243,248,7239,-69,259545
-234,248,164,7262,-97,259669
-265,261,82,7256,-115,259578
-261,277,99,7259,-71,259454
-270,297,50,7233,-50,259498
-290,309,-19,7260,-63,259558
-290,283,51,7269,-165,259468
-292,267,193,7260,-112,259596
-264,266,226,7307,-141,259650
-232,275,182,7302,-215,259663
-262,296,238,7283,-128,259542
-276,302,226,7188,-78,259535
-272,325,124,7244,-68,259526
-289,341,9,7222,-89,259625
-304,286,55,7257,-122,259641
-301,221,158,7239,-128,259607
-256,212,196,7230,-98,259615
-221,238,192,7244,-121,259762
-236,221,193,7265,-97,259629
-223,192,233,7248,-57,259644
-225,190,134,7304,-33,259619
-262,201,12,7244,-67,259690
-287,188,8,7248,-122,259588
-275,156,100,7218,-119,259631
-208,132,165,7229,-58,259565
-201,119,153,7204,-83,259593
-191,121,176,7268,-118,259573
-160,132,233,7250,-128,259622
-184,114,184,7226,-142,259576
-186,83,62,7196,-123,259607
-189,67,115,7232,-180,259623
-212,72,162,7203,-142,259632
-164,92,107,7207,-98,259576
-175,88,67,7215,-141,259702
-174,79,149,7238,-94,259632
-134,102,189,7304,-114,259616
-155,138,95,7246,-183,259573
-196,154,38,7158,-140,259533
-188,135,57,7194,-107,259595
-185,93,134,7229,-97,259493
-128,88,111,7255,-198,259613
-86,101,68,7296,-118,259650
-92,105,86,7227,-108,259677
-15,123,171,7246,-159,259729
-22,113,101,7234,-136,259747
-37,130,40,7218,-53,259633
-54,125,50,7232,-85,259670
-43,120,72,7174,-159,259621
16,122,22,7288,-63,259579
38,105,-50,7271,-158,259666
43,102,0,7240,-137,259610
61,119,17,7254,-137,259696
50,144,-38,7272,-110,259591
24,125,-65,7240,-165,259560
40,88,95,7250,-191,259587
14,78,168,7271,-191,259581
75,122,112,7235,-103,259600
93,141,57,7274,-97,259530
110,132,91,7291,-78,259613
138,110,86,7273,-136,259475
143,129,23,7236,-176,259588
116,141,-23,7220,-70,259687
146,134,53,7207,-47,259548
158,129,142,7206,-45,259592
185,145,197,7235,-148,259610
184,166,216,7263,-169,259663
173,157,232,7217,-63,259707
193,121,241,7258,-131,259630
165,83,180,7244,-93,259635
140,55,101,7242,-131,259623
122,31,108,7167,-133,259601
101,24,157,7188,-157,259632
132,45,166,7220,-147,259547
146,41,141,7237,-129,259529
133,39,221,7250,-80,259624
159,26,224,7261,-110,259647
157,27,146,7253,-67,259637
97,23,61,7316,-33,259575
73,47,95,7191,-219,259599
41,36,62,7202,-112,259691
33,30,22,7212,-146,259605
18,38,44,7157,-98,259527
-6,-1,40,7271,-76,259602
9,-9,44,7241,-194,259642
-21,-18,-33,7262,-197,259541
-59,-33,-125,7273,-151,259598
-87,-43,-138,7236,-131,259612
-77,-42,-115,7257,-150,259620
-81,-41,-117,7234,-219,259685
-83,-7,-96,7262,-98,259585
-94,24,-31,7274,-44,259535
-87,60,24,7295,-99,259603
-121,85,44,7263,-143,259592
-182,81,107,7250,-171,259626
-197,58,166,7248,-185,259569
-221,39,189,7225,-144,259599
-223,41,183,7193,-187,259534
-191,60,238,7268,-175,259563
-174,44,285,7208,-159,259635
-154,20,273,7239,-117,259665
-177,-23,186,7278,-100,259561
-217,-67,204,7208,-147,259520
-254,-117,213,7218,-181,259577
-251,-143,210,7230,-166,259672
-236,-131,146,7219,-68,259568
-282,-42,196,7217,-87,259588
-221,-7,152,7269,-61,259518
-179,-4,108,7220,-92,259619
-191,-10,126,7285,-137,259576
-230,-25,186,7312,-180,259568
-232,-49,193,7251,-133,259627
-254,-49,194,7279,-105,259587
-248,-24,218,7248,-143,259695
-223,-6,224,7256,-150,259581
-207,24,209,7251,-91,259582
-157,60,166,7249,-142,259651
-181,80,68,7294,-57,259520
-203,74,101,7242,-111,259562
-203,60,159,7252,-68,259655
-229,42,142,7241,-123,259562
-245,89,159,7208,-120,259645
-227,159,203,7199,-100,259662
-211,195,197,7245,-59,259593
-183,189,122,7272,-71,259592
-205,184,36,7193,-101,259600
-239,173,43,7253,-92,259580
-250,115,-9,7218,-86,259530
-278,55,-45,7217,-102,259521
-270,37,-51,7166,-152,259578
-260,57,-35,7180,-145,259663
-232,77,-94,7207,-88,259652
-211,91,-138,7207,-34,259559
-247,61,-154,7232,-67,259544
-274,40,-83,7224,-83,259569
-257,30,-54,7185,-142,259526
-276,44,-80,7241,-95,259622
-267,83,-22,7249,-150,259611
-258,105,53,7164,-141,259604
-228,116,118,7223,-115,259537
-224,132,131,7217,-119,259575
-254,132,141,7343,-97,259611
-285,136,185,7252,-72,259661
-283,132,216,7218,-152,259666
-296,148,211,7214,-135,259644
-277,196,159,7243,-114,259543
-258,286,181,7257,-114,259518
-245,334,164,7325,-93,259614
-208,327,110,7309,-85,259596
-248,303,96,7281,-167,259649
-255,316,187,7250,-160,259560
-234,314,194,7311,-80,259582
-252,287,165,7256,-67,259622
-245,309,234,7261,-170,259513
-209,354,215,7228,-116,259577
-158,404,153,7250,-69,259525
-119,386,91,7288,-43,259607
-114,334,172,7306,-53,259655
-116,294,249,7249,-91,259615
-91,304,289,7192,-172,259642
-118,307,322,7214,-56,259653
-108,306,356,7245,-160,259624
-68,318,347,7264,-127,259567
-41,346,283,7262,-168,259608
-23,352,160,7274,-88,259649
-28,298,100,7213,-66,259614
-9,256,129,7206,-51,259643
39,223,106,7283,-158,259648
13,202,55,7330,-141,259542
19,205,66,7221,-75,259675
61,287,104,7199,-88,259655
69,328,-1,7226,-75,259720
99,352,-64,7234,-79,259590
71,311,-67,7234,-162,259549
55,268,-9,7246,-144,259560
72,241,-39,7196,-171,259508
51,217,-54,7232,-157,259519
49,221,22,7224,-150,259576
69,269,47,7271,-109,259578
93,318,10,7282,-117,259668
111,348,-18,7242,-31,259670
92,323,72,7252,-78,259579
95,285,156,7211,-65,259549
103,236,154,7208,-121,259611
66,200,194,7185,-179,259519
51,192,235,7236,-171,259638
56,215,206,7237,-115,259547
50,251,106,7264,-120,259500
33,276,31,7197,-160,259620
-3,266,47,7248,-103,259537
-20,265,20,7203,-144,259591
-38,206,-25,7160,-178,259575
-76,147,-16,7223,-116,259633
-82,112,30,7225,-123,259656
-75,141,44,7223,-195,259662
-67,198,-15,7227,-148,259665
-66,233,-23,7247,-127,259587
-64,238,79,7172,-76,259604
-54,245,128,7165,-77,259656
-75,246,80,7239,-202,259649
-118,250,108,7255,-167,259567
-114,274,174,7245,-164,259594
-97,301,176,7143,-165,259639
-94,341,146,7253,-93,259734
-92,351,108,7207,-119,259565
-123,329,137,7225,-114,259533
-135,287,194,7173,-132,259486
-122,226,188,7237,-143,259608
-132,160,149,7203,-148,259493
-184,190,177,7239,-140,259570
-141,219,105,7193,-102,259632
-126,267,-3,7240,-65,259634
-118,279,-32,7272,-123,259639
-151,271,31,7274,-163,259534
-121,257,33,7277,-160,259581
-130,228,24,7215,-99,259531
-162,206,114,7201,-102,259531
-138,246,188,7255,-34,259613
-125,293,99,7235,-142,259690
-133,361,27,7238,-127,259596
-134,399,31,7269,-84,259544
-149,371,87,7275,-61,259733
-143,335,96,7255,-98,259621
-140,293,162,7235,-97,259661
-164,217,267,7279,-142,259638
-124,199,327,7225,-150,259566
-74,254,314,7266,-127,259571
-79,307,227,7227,-101,259628
-95,340,159,7209,-79,259599
-106,345,143,7179,-87,259544
-119,338,92,7199,-99,259579
-131,289,48,7183,-76,259626
-169,195,110,7231,-79,259611
-137,182,183,7204,-131,259641
-110,203,77,7206,-40,259624
-81,218,-62,7266,-142,259613
-120,253,-25,7236,-168,259636
-119,229,-2,7255,-137,259601
-113,187,-97,7277,-111,259689
-152,133,-93,7193,-155,259510
-177,81,13,7183,-123,259629
-129,86,84,7268,-154,259659
-121,115,41,7230,-161,259619
-114,192,33,7211,-132,259506
-111,232,35,7238,-85,259515
-108,221,62,7237,-95,259599
-90,171,66,7175,-123,259588
-98,91,90,7230,-146,259498
-106,41,151,7215,-142,259526
-72,48,194,7177,-130,259656
-72,73,147,7266,-87,259734
-75,125,113,7240,-112,259596
-56,143,150,7291,-72,259536
-60,151,189,7221,-71,259616
-56,127,145,7222,-163,259646
-56,78,124,7272,-142,259545
-76,32,192,7259,-107,259647
-40,34,196,7227,-111,259578
-15,97,73,7219,-97,259473
-31,139,-56,7191,-127,259571
-26,152,-5,7233,-83,259609
-18,140,44,7255,-38,259644
19,110,57,7189,-64,259641
5,37,97,7281,-118,259653
7,-33,261,7228,-82,259647
79,-55,301,7202,-101,259707
69,-42,212,7221,-120,259693
48,-29,128,7265,-92,259565
42,-27,123,7230,-120,259594
47,-23,116,7210,-117,259584
85,-10,126,7186,-95,259563
79,-50,126,7192,-150,259590
80,-76,168,7198,-158,259613
115,-55,143,7241,-111,259599
115,-15,52,7221,-117,259545
90,7,-55,7298,-160,259653
76,15,-63,7246,-126,259575
43,34,-65,7238,-59,259523
47,38,-116,7227,-43,259611
37,-14,-97,7255,-16,259614
6,-96,69,7193,-129,259617
37,-133,101,7252,-120,259587
39,-81,43,7215,-162,259710
-9,-12,-22,7220,-127,259709
9,21,-3,7215,-138,259569
-3,19,-35,7168,-87,259524
-14,19,-17,7190,-106,259669
-9,-21,65,7243,-73,259617
-1,-75,209,7234,-141,259612
33,-85,246,7279,-188,259625
34,-59,188,7250,-155,259584
14,-59,174,7192,-76,259588
17,-40,192,7298,-97,259646
5,-24,130,7324,-131,259543
-18,-14,28,7242,-146,259542
-67,-34,52,7177,-119,259687
-92,-62,177,7232,-160,259532
-67,-47,132,7230,-196,259596
-81,-8,63,7291,-105,259676
-115,37,102,7282,-61,259564
-101,77,176,7194,-132,259628
-122,95,124,7253,-148,259591
-131,143,86,7316,-154,259662
-151,134,143,7264,-105,259692
-154,114,197,7258,-70,259648
-135,119,182,7271,-118,259510
-135,148,143,7293,-158,259607
-152,197,166,7288,-126,259616
-155,236,164,7234,-90,259600
-164,263,150,7297,-30,259539
-181,245,141,7211,-65,259471
-184,162,170,7307,-5,259656
-187,128,269,7250,-114,259709
-156,154,271,7287,-191,259632
-171,185,150,7305,-126,259675
-181,224,168,7332,-113,259530
-197,247,243,7224,-104,259539
-216,244,148,7219,-100,259568
-215,236,64,7321,-125,259468
-246,196,121,7250,-111,259602
-247,106,126,7238,-90,259608
-203,74,53,7307,-153,259590
-200,107,10,7272,-56,259493
-217,155,27,7275,-75,259608
-184,189,17,7234,-88,259569
-216,199,-1,7242,-59,259570
-244,200,-35,7204,-139,259524
-288,170,-1,7166,-132,259502
-302,138,46,7168,-139,259566
-275,141,4,7289,-59,259516
-274,150,-79,7248,-103,259577
-282,203,-53,7229,-59,259596
-290,196,-19,7230,-101,259539
-299,196,-20,7204,-93,259732
-308,180,20,7275,-93,259634
-321,153,105,7240,-117,259642
-307,145,197,7155,-120,259670
-267,166,189,7200,-109,259632
-260,190,147,7181,-107,259570
-256,181,125,7214,-85,259608
-259,170,84,7175,-126,259633
-301,187,28,7230,-121,259649
-335,186,24,7206,-99,259624
-342,162,134,7153,-144,259671
-358,113,228,7195,-99,259686
-332,92,274,7176,-83,259841
-342,101,329,7211,-82,259631
-345,105,400,7180,-112,259571
-319,120,405,7204,-145,259684
-343,89,312,7246,-122,259575
-359,69,252,7293,-120,259569
-372,54,223,7187,-115,259528
-346,74,196,7175,-80,259674
-305,132,104,7236,-144,259652
-309,143,50,7242,-130,259566
-310,147,126,7253,-153,259492
-310,150,81,7270,-154,259600
-325,170,13,7273,-109,259625
-352,169,-18,7209,-115,259638
-374,140,90,7172,-188,259548
-355,97,146,7216,-125,259554
-299,93,79,7212,-98,259650
-282,110,73,7239,-118,259666
-251,129,118,7214,-109,259568
-176,125,34,7239,-79,259651
-199,145,-40,7265,-75,259657
-182,164,-31,7244,-95,259591
-203,182,-19,7263,-92,259702
-184,184,-65,7265,-138,259615
-160,197,-26,7265,-150,259611
-159,187,36,7190,-119,259555
-110,206,148,7226,-142,259689
-92,239,161,7207,-101,259647
-103,252,163,7111,-88,259586
-96,238,210,7212,-91,259695
-104,207,306,7246,-145,259547
-111,172,303,7296,-82,259499
-45,168,255,7237,-184,259576
-25,141,270,7284,-160,259681
13,145,348,7206,-115,259574
76,189,320,7238,-159,259506
58,227,227,7253,-127,259462
63,258,227,7211,-136,259623
61,240,248,7214,-105,259646
83,225,201,7181,-75,259562
95,242,105,7158,-81,259601
89,252,106,7147,-99,259573
134,239,112,7179,-76,259616
171,234,111,7189,-178,259595
148,233,43,7244,-147,259596
144,226,41,7267,-29,259509
119,199,43,7234,-120,259544
114,154,32,7226,-41,259464
127,141,-35,7210,-167,259453
136,144,-88,7167,-171,259496
139,183,-98,7221,-143,259586
160,229,-176,7243,-126,259544
136,263,-225,7327,-82,259603
120,292,-207,7281,-81,259580
118,283,-125,7240,-55,259581
86,273,-115,7263,-63,259521
104,294,-110,7277,-91,259556
100,288,-63,7293,-77,259577
122,250,29,7222,-154,259632
167,243,26,7308,-200,259621
142,250,32,7338,-189,259571
117,280,84,7265,-115,259546
103,285,160,7252,-83,259581
93,271,173,7169,-89,259545
103,267,207,7249,-149,259679
95,258,281,7252,-130,259669
88,248,305,7221,-131,259626
109,279,258,7205,-217,259641
79,284,252,7266,-142,259612
33,273,270,7274,-147,259691
30,231,244,7259,-169,259672
-52,258,238,7224,-193,259594
-32,262,189,7281,-143,259661
-24,258,225,7325,-150,259608
-9,236,242,7276,-56,259485
16,228,181,7241,-131,259613
-29,204,108,7257,-142,259553
-53,197,125,7264,-120,259419
-68,156,119,7203,-54,259543
-88,133,83,7220,-62,259568
-83,163,4,7186,-81,259634
-74,206,-16,7232,-141,259555
-73,229,0,7258,-167,259537
-72,217,-35,7148,-47,259611
-94,193,-57,7179,-121,259571
-116,202,7,7278,-182,259636
-109,195,19,7232,-113,259619
-97,197,9,7207,-103,259584
-81,193,-16,7197,-145,259596
-76,192,17,7244,-124,259584
-75,164,-16,7234,-114,259544
-88,144,-66,7297,-158,259553
-123,119,-56,7295,-145,259625
-147,111,9,7299,-182,259501
-172,83,36,7221,-67,259564
-186,74,13,7187,-106,259599
-185,88,41,7229,-68,259587
-181,102,102,7288,-73,259594
-137,120,110,7201,-108,259674
-143,93,63,7231,-86,259594
-160,114,96,7199,-99,259645
-180,118,147,7134,-74,259702
-186,93,142,7206,-52,259642
-191,84,144,7264,-101,259594
-168,95,174,7261,-144,259617
-121,126,164,7217,-123,259528
-74,140,149,7188,-126,259473
-61,119,110,7184,-161,259476
-99,93,130,7244,-36,259517
-114,80,121,7247,-165,259563
-140,94,95,7232,-114,259590
-168,113,55,7228,-91,259526
-143,147,110,7257,-85,259548
-139,167,151,7156,-100,259678
-101,194,170,7168,-78,259642
-104,193,141,7213,-127,259684
-115,164,161,7219,-125,259643
-103,131,185,7267,-87,259602
-133,83,128,7253,-90,259650
-156,60,41,7193,-117,259576
-146,107,54,7243,-100,259604
-115,140,59,7259,-87,259611
-79,152,46,7254,-62,259590
-60,129,8,7171,-110,259560
-74,123,95,7179,-129,259645
-81,137,94,7183,-174,259627
-89,133,61,7187,-178,259571
-130,144,71,7242,-86,259496
-133,163,117,7265,-84,259579
-104,207,114,7224,-92,259602
-89,248,104,7177,-91,259612
-86,205,135,7265,-90,259569
-84,169,247,7263,-172,259617
-72,168,330,7216,-139,259593
-70,154,226,7230,-77,259631
-91,159,193,7263,-106,259602
-69,185,199,7191,-110,259606
-33,197,133,7207,-88,259526
-1,203,91,7256,-141,259600
-12,191,87,7208,-113,259543
-36,180,139,7200,-87,259542
-14,161,110,7216,-79,259605
-43,145,76,7198,-74,259580
-57,108,29,7214,-81,259662
-46,130,50,7258,-114,259567
-21,150,33,7259,-81,259557
10,177,-8,7263,-119,259622
-4,135,-13,7245,-131,259599
-4,103,66,7213,-172,259536
11,95,106,7327,-246,259583
4,69,31,7233,-125,259612
6,58,38,7223,-84,259579
35,76,110,7254,-104,259453
58,107,40,7331,-36,259479
92,141,-71,7218,-108,259543
58,120,-50,7176,-56,259606
50,106,85,7236,-74,259694
78,107,111,7252,-138,259585
32,88,58,7220,-95,259620
3,79,92,7221,-108,259639
5,110,110,7242,-147,259610
10,146,79,7287,-146,259660
12,181,54,7273,-123,259628
-14,157,94,7217,-124,259686
-58,108,119,7185,-77,259659
-50,107,140,7220,-77,259510
-84,101,107,7243,-80,259644
-143,95,97,7187,-162,259674
-138,132,166,7206,-172,259617
-121,180,173,7279,-172,259619
-90,221,135,7286,-131,259666
-73,198,118,7247,-169,259514
-144,180,212,7232,-157,259630
-143,133,189,7221,-142,259662
-184,81,108,7277,-133,259635
-217,74,135,7288,-106,259731
-213,104,181,7281,-154,259615
-204,129,112,7316,-105,259638
-204,156,119,7201,-102,259667
-238,134,188,7210,-57,259566
-249,81,228,7195,-74,259604
-255,43,197,7182,-169,259571
-296,6,170,7200,-208,259487
-343,0,130,7251,-68,259472
-320,44,100,7228,-128,259569
-314,111,19,7308,-136,259589
-321,168,27,7266,-71,259677
-332,154,58,7194,-12,259603
-332,136,120,7190,-105,259557
-325,134,111,7173,-67,259623
-373,96,87,7161,-161,259613
-396,46,125,7240,-109,259605
-387,51,157,7231,-96,259575
-370,88,71,7227,-53,259537
-372,138,-5,7238,-68,259581
-357,142,57,7267,-56,259649
-331,132,163,7253,-98,259644
-298,109,157,7213,-121,259706
-324,78,179,7218,-71,259607
-337,80,257,7201,-158,259644
-296,101,254,7260,-191,259681
-266,156,172,7303,-92,259633
-280,196,119,7264,-103,259589
-292,222,165,7264,-166,259523
-284,206,157,7240,-214,259584
-244,161,101,7187,-222,259562
-272,72,79,7227,-85,259575
-290,20,155,7139,-82,259524
-261,32,141,7164,-88,259591
-248,102,80,7262,-116,259624
-252,136,41,7285,-98,259583
-274,127,101,7200,-108,259521
-279,108,130,7221,-154,259517
-254,125,119,7323,-57,259616
-270,133,83,7281,-88,259713
-245,136,115,7205,-106,259673
-201,156,125,7250,-173,259619
-175,198,68,7267,-117,259688
-203,244,100,7202,-178,259557
-188,268,182,7234,-168,259571
-154,230,168,7251,-214,259655
-157,212,147,7189,-141,259619
-217,141,230,7254,-124,259610
-231,76,175,7277,-148,259564
-147,105,143,7248,-131,259578
-182,164,95,7250,-125,259545
-150,186,32,7226,-130,259557
-124,213,86,7191,-186,259623
-118,247,152,7270,-104,259592
-125,261,37,7260,-94,259531
-135,237,-22,7206,-26,259495
-147,233,128,7257,-121,259542
-130,231,73,7228,-102,259636
-121,255,-29,7195,-89,259589
-124,298,30,7172,-97,259574
-114,314,135,7211,-92,259658
-110,288,128,7287,-103,259642
-112,264,119,7281,-115,259603
-152,212,167,7255,-162,259610
-150,172,181,7249,-122,259538
-116,177,168,7273,-139,259596
-113,200,146,7261,-99,259601
-87,216,166,7279,-75,259542
-77,216,202,7236,-147,259698
-58,210,220,7294,-105,259644
-26,194,155,7236,-124,259641
-56,128,139,7221,-76,259600
-58,99,181,7187,-86,259584
-41,126,94,7187,-106,259635
-46,152,-4,7180,-91,259643
-39,162,40,7223,-45,259653
-40,150,137,7266,-103,259649
-23,135,134,7270,-101,259535
-18,110,106,7244,-128,259600
-40,59,179,7327,-116,259652
-11,29,234,7282,-162,259625
5,15,124,7265,-134,259561
18,50,67,7195,-134,259538
35,133,101,7223,-114,259523
53,183,110,7239,-131,259599
90,218,87,7226,-143,259634
89,219,59,7243,-120,259587
58,148,70,7219,-115,259549
56,117,93,7147,-118,259572
87,124,47,7204,-78,259564
71,156,-34,7235,-60,259678
93,184,-31,7191,-82,259547
107,191,-6,7193,-114,259519
109,221,-46,7230,-183,259634
102,212,-85,7208,-163,259604
67,168,-57,7190,-116,259540
71,122,24,7250,-155,259567
69,124,4,7248,-150,259608
71,159,-13,7298,-82,259577
90,210,71,7259,-116,259608
86,246,107,7303,-99,259566
75,284,94,7239,-101,259607
68,276,84,7275,-113,259472
30,239,143,7242,-106,259551
23,189,118,7206,-126,259594
38,179,90,7199,-157,259573
12,164,80,7229,-158,259582
6,180,143,7274,-111,259575
-8,170,123,7255,-70,259695
-17,185,110,7135,-141,259540
-25,146,106,7224,-163,259568
-39,57,158,7313,-84,259584
-51,16,162,7254,-173,259563
-39,44,45,7188,-218,259453
-37,88,-61,7249,-73,259496
-33,122,-24,7195,-154,259587
-32,153,32,7226,-83,259574
-20,178,-23,7241,-118,259663
-36,173,-31,7215,-159,259609
-78,134,128,7229,-128,259708
-59,72,150,7223,-164,259577
-44,67,81,7246,-216,259638
-49,114,56,7299,-123,259683
-85,179,143,7195,-77,259615
-73,204,126,7210,-127,259566
-80,212,138,7194,-158,259585
-106,204,170,7231,-123,259563
-132,178,254,7200,-125,259636
-123,146,221,7178,-105,259555
-71,148,185,7250,-57,259549
-74,123,169,7187,-41,259616
-54,123,156,7236,-110,259663
-33,154,146,7290,-167,259683
-33,187,96,7293,-142,259671
-51,166,81,7274,-120,259592
-65,112,166,7208,-171,259635
-14,64,190,7262,-83,259628
10,64,85,7229,-148,259487
25,90,66,7265,-98,259596
60,131,120,7246,-143,259526
69,160,92,7220,-139,259535
64,197,2,7227,-95,259657
49,207,-31,7287,-103,259548
26,173,37,7166,-96,259492
42,124,-21,7173,-120,259606
59,105,-101,7301,-130,259560
43,124,-58,7223,-119,259614
65,168,0,7281,-156,259590
77,221,-59,7270,-147,259612
52,272,-57,7272,-165,259568
3,267,5,7318,-32,259525
2,216,46,7223,-116,259552
2,169,33,7199,-130,259620
9,166,-24,7227,-83,259602
35,191,18,7202,-128,259535
69,229,63,7254,-147,259646
85,255,76,7234,-154,259642
65,282,88,7200,-131,259647
36,305,160,7210,-126,259556
14,268,205,7201,-122,259673
18,241,191,7175,-98,259643
-9,199,132,7288,-136,259566
0,191,155,7247,-133,259548
29,205,199,7225,-106,259504
11,225,182,7175,-98,259598
10,260,153,7178,-84,259640
-16,274,208,7199,-106,259615
-71,241,238,7227,-173,259540
-59,192,179,7212,-142,259583
-66,143,98,7168,-112,259419
-86,141,106,7208,-147,259507
-67,169,106,7243,-139,259619
-75,195,-15,7282,-82,259691
-52,235,-80,7217,-149,259605
-63,256,-16,7224,-106,259573
-80,222,41,7262,-74,259662
-75,186,66,7254,-45,259589
-99,170,78,7216,-133,259636
-97,176,137,7230,-131,259575
-71,186,111,7288,-165,259687
-93,196,83,7265,-110,259570
-130,219,60,7223,-123,259610
-177,211,18,7156,-73,259546
-189,191,-38,7187,-42,259589
-167,159,-147,7302,-173,259605
-164,97,-168,7269,-131,259490
-148,75,-115,7214,-117,259569
-104,96,-40,7165,-68,259580
-130,132,15,7184,-127,259555
-148,146,94,7255,-124,259566
-184,139,254,7243,-165,259533
-204,122,394,7266,-131,259590
-175,111,378,7207,-96,259644
-174,90,308,7240,-89,259674
-153,91,381,7334,-111,259610
-128,116,356,7348,-153,259644
-144,137,209,7322,-101,259577
-184,177,154,7225,-78,259475
-209,214,210,7196,-101,259653
-267,197,202,7235,-181,259594
-275,167,197,7188,-146,259567
-282,146,264,7224,-147,259570
-291,151,311,7213,-156,259618
-243,190,239,7302,-123,259505
-251,220,182,7266,-125,259524
-278,220,180,7179,-87,259604
-299,191,179,7263,-73,259619
-311,172,149,7192,-137,259648
-326,160,90,7206,-126,259463
-346,141,65,7195,-60,259499
-312,130,90,7264,-90,259513
-273,155,61,7209,-114,259552
-273,201,-35,7207,-133,259614
-311,217,-42,7197,-181,259606
-337,174,51,7222,-114,259633
-362,120,74,7252,-141,259640
-372,88,36,7211,-156,259590
-379,34,23,7247,-138,259629
-369,-9,109,7201,-134,259639
-339,-34,145,7252,-154,259623
-356,-16,103,7243,-89,259639
-398,1,93,7164,-108,259586
-426,32,144,7217,-148,259540
-436,44,132,7256,-118,259574
-431,28,73,7244,-167,259668
-421,21,94,7180,-134,259650
-389,41,133,7193,-72,259460
-334,87,104,7157,-132,259501
-345,124,34,7155,-144,259511
-364,117,104,7286,-127,259625
-389,99,183,7272,-88,259536
-393,82,174,7204,-82,259482
-404,81,141,7194,-118,259451
-402,58,159,7212,-161,259681
-379,32,201,7227,-136,259597
-332,33,183,7242,-105,259667
-317,57,170,7154,-108,259652
-327,78,238,7208,-77,259562
-310,84,325,7227,-71,259596
-320,75,333,7233,-59,259541
-326,86,305,7122,-76,259595
-306,88,245,7163,-46,259617
-276,47,210,7220,-25,259504
-233,26,150,7194,-94,259545
-212,18,60,7239,-140,259512
-235,27,87,7216,-132,259577
-231,17,116,7225,-131,259525
-220,29,121,7128,-46,259638
-178,22,60,7183,-116,259539
-215,44,103,7219,-41,259659
-147,22,98,7223,-45,259653
-101,22,52,7226,-198,259556
-109,39,9,7213,-167,259543
-122,70,44,7189,-115,259676
-128,118,48,7212,-95,259627
-136,155,39,7207,-141,259675
-119,176,0,7237,-70,259624
-91,169,-10,7195,-32,259656
-52,165,32,7189,-133,259617
-1,176,25,7194,-180,259796
-13,169,-32,7326,-148,259673
-21,191,34,7326,-96,259561
-29,191,64,7298,-43,259633
-47,171,35,7218,-48,259561
-81,179,83,7246,-99,259698
-68,190,117,7181,-146,259568
-26,201,108,7228,-121,259602
23,203,94,7225,-119,259614
33,206,113,7201,-147,259573
15,208,207,7208,-122,259619
16,212,172,7256,-178,259642
-24,224,141,7188,-192,259597
-31,231,116,7210,-165,259571
-7,245,139,7202,-170,259662
37,236,126,7211,-99,259554
86,228,90,7207,-145,259620
47,197,126,7185,-107,259600
59,184,188,7205,-128,259552
51,182,194,7234,-139,259656
10,152,138,7255,-172,259648
2,143,152,7220,-109,259710
1,144,128,7182,-97,259632
45,186,105,7196,-120,259582
79,229,86,7211,-143,259580
66,213,130,7250,-182,259604
71,205,190,7214,-145,259615
72,201,149,7255,-102,259616
30,184,122,7216,-183,259631
23,154,156,7183,-221,259597
45,139,133,7235,-155,259713
77,143,41,7184,-162,259541
113,154,-49,7219,-87,259585
109,165,-7,7271,-86,259679
119,163,58,7217,-94,259648
122,172,120,7243,-125,259531
61,163,121,7222,-147,259567
48,156,147,7175,-95,259716
54,166,154,7304,-100,259607
102,193,102,7282,-156,259600
135,197,23,7255,-186,259682
117,187,88,7309,-138,259653
160,167,102,7224,-96,259589
95,203,70,7177,-124,259636
77,181,72,7174,-138,259669
50,170,114,7218,-129,259611
83,162,76,7257,-114,259614
140,191,-23,7223,-133,259557
146,197,-75,7269,-92,259513
142,168,-15,7234,-89,259529
152,171,47,7314,-94,259590
145,171,-16,7298,-172,259659
87,165,-44,7126,-144,259686
73,169,11,7219,-156,259632
93,176,43,7263,-71,259613
119,186,-22,7283,-129,259662
115,181,-40,7218,-121,259721
82,180,0,7234,-157,259588
107,191,87,7192,-129,259550
110,193,83,7237,-138,259598
43,158,58,7229,-198,259550
42,146,79,7275,-91,259521
45,178,61,7257,-76,259580
50,205,7,7185,-136,259537
65,203,-40,7225,-139,259553
34,175,18,7226,-63,259528
33,152,61,7243,-79,259584
-4,165,21,7297,-20,259587
-62,145,44,7186,-16,259569
-54,169,143,7130,-129,259568
-51,193,134,7174,-162,259573
-47,241,76,7243,-140,259568
-63,239,86,7276,-147,259686
-69,214,182,7231,-155,259606
-48,220,212,7238,-50,259584
-72,206,112,7290,-85,259651
-110,192,162,7280,-134,259595
-141,199,248,7244,-83,259614
-126,211,156,7170,-194,259541
-108,264,106,7243,-133,259702
-133,276,163,7214,-115,259659
-113,242,199,7096,-75,259612
-88,234,117,7297,-141,259545
-120,206,83,7264,-156,259557
-161,184,113,7257,-162,259582
-165,180,181,7233,-165,259572
-178,185,97,7171,-185,259517
-139,242,20,7185,-104,259561
-143,260,23,7218,-109,259546
-160,263,28,7213,-92,259607
-87,243,53,7183,-131,259760
-94,206,28,7212,-109,259554
-134,178,22,7154,-65,259497
-158,184,74,7086,-123,259564
-137,201,33,7182,-95,259733
-94,223,-59,7244,-65,259646
-105,249,-8,7267,-111,259613
-102,253,117,7223,-163,259688
-44,236,101,7220,-2,259690
-54,207,144,7253,-49,259576
-113,177,181,7276,-18,259586
-121,168,119,7189,-79,259630
-119,208,64,7208,-82,259647
-64,280,57,7231,-121,259609
-90,288,44,7191,-129,259655
-65,263,87,7202,-118,259691
24,261,156,7234,-167,259614
-23,230,102,7299,-131,259570
-48,176,86,7275,-130,259572
-70,148,145,7233,-79,259603
-79,150,174,7177,-125,259662
-34,176,55,7120,-71,259612
-47,193,-3,7271,-48,259555
-16,186,59,7289,-101,259543
45,178,78,7261,-142,259539
4,142,19,7290,-149,259594
-54,129,43,7210,-154,259516
-50,139,157,7243,-120,259554
-120,123,153,7247,-120,259686
-127,122,108,7134,-125,259621
-81,143,203,7190,-153,259577
-106,110,185,7241,-126,259661
-29,93,136,7250,-153,259590
-63,94,190,7278,-67,259602
-136,45,258,7240,-117,259661
-182,44,228,7199,-156,259622
-240,52,124,7186,-150,259609
-191,76,51,7158,-150,259560
-128,39,-2,7275,-101,259616
-111,12,23,7335,-169,259533
-109,40,-3,7311,-126,259635
-136,61,-42,7252,-107,259610
-201,69,36,7234,-194,259581
-173,77,131,7245,-97,259559
-101,88,88,7141,-52,259556
-69,90,-39,7211,-52,259616
-95,148,84,7199,-115,259666
-172,194,133,7246,-147,259651
-159,223,114,7202,-178,259640
-151,206,160,7177,-176,259619
-129,193,273,7215,-120,259590
-54,179,145,7224,-103,259469
-17,182,-102,7209,-45,259440
-64,207,-61,7269,-94,259598
-114,201,142,7250,-78,259726
-132,258,152,7170,-78,259575
-133,342,-49,7211,-161,259514
-99,338,-124,7216,-42,259531
-88,246,68,7213,-55,259645
-35,211,174,7239,-126,259650
-216,296,172,7292,-150,259600
-304,390,205,7248,-176,259610
-374,447,402,7241,-85,259595
-336,415,425,7241,-112,259613
-182,358,403,7321,-146,259731
-246,268,403,7263,-98,259650
-387,169,399,7185,-175,259481
-437,120,418,7196,-210,259523
-490,122,444,7228,-154,259533
-474,71,312,7247,-89,259630
-355,35,163,7203,-191,259686
-291,23,71,7247,-192,259512
-248,50,-19,7216,-134,259591
-314,36,-41,7151,-78,259584
-453,-1,-9,7166,-129,259681
-459,-10,-68,7191,-151,259572
-420,-20,-55,7222,-85,259484
-403,-34,8,7204,-59,259583
-328,-52,53,7145,-125,259531
-289,-42,75,7262,-159,259521
-305,1,126,7251,-151,259629
-331,-44,195,7164,-102,259693
-322,-127,208,7202,-180,259602
-276,-148,96,7261,-157,259708
-208,-186,-33,7258,-71,259581
-113,-191,-21,7132,-84,259607
-85,-190,-84,7203,-108,259545
-30,-104,-164,7295,-150,259580
-48,16,-168,7217,-70,259582
-117,42,-113,7129,6,259717
-102,41,46,7223,-34,259692
-90,10,113,7278,-97,259697
-119,17,154,7272,-71,259657
-136,76,292,7241,-141,259675
-142,130,371,7179,-133,259656
-183,161,343,7233,-198,259681
-141,186,386,7232,-169,259591
-194,176,482,7301,-183,259738
-240,156,437,7262,-83,259601
-259,154,314,7186,-94,259644
-326,205,196,7265,-86,259596
-396,246,135,7260,-64,259622
-385,276,69,7229,-121,259647
-405,338,5,7284,-128,259705
-446,361,-71,7210,-156,259690
-450,371,-57,7238,-120,259647
-475,341,35,7206,-70,259564
-466,322,57,7196,-146,259597
-490,307,65,7247,-125,259687
-499,241,192,7189,-116,259544
-472,223,363,7245,-138,259583
-443,196,307,7271,-141,259630
-450,166,196,7237,-125,259741
-454,118,234,7181,-95,259644
-381,52,248,7197,-96,259633
-307,21,105,7248,-92,259619
-287,9,30,7254,-147,259693
-261,14,35,7240,-90,259570
-165,55,33,7215,-139,259559
-126,100,-33,7166,-156,259553
-123,143,-49,7219,-101,259541
-84,148,97,7291,-122,259609
-48,137,253,7222,-115,259602
-6,155,248,7241,-105,259659
19,168,223,7177,-106,259655
52,193,311,7213,-105,259658
118,176,278,7259,-120,259682
156,166,236,7265,-139,259593
162,136,221,7172,-134,259678
204,77,123,7259,-138,259598
223,29,-12,7252,-187,259604
210,23,-122,7165,-90,259588
211,26,-162,7206,-116,259581
236,15,-277,7232,-127,259641
193,48,-279,7294,-84,259491
229,72,-288,7257,-171,259552
258,92,-214,7232,-109,259631
232,95,-121,7233,-110,259577
215,97,-57,7241,-226,259679
179,55,-82,7254,-156,259680
151,31,-19,7260,-102,259713
178,63,90,7295,-185,259680
171,108,40,7214,-141,259612
124,158,19,7207,-100,259556
112,195,63,7229,-143,259604
104,188,106,7218,-179,259584
92,145,44,7248,-109,259645
59,122,-12,7159,-106,259538
9,101,7,7141,-146,259520
2,110,101,7203,-185,259687
-15,106,113,7189,-86,259588
-36,127,86,7221,-135,259526
-77,155,192,7224,-103,259541
-100,145,313,7193,-75,259712
-107,103,310,7152,-53,259676
-132,41,241,7194,-88,259567
-150,3,272,7228,-120,259618
-107,-13,392,7254,-88,259710
-149,9,399,7162,-139,259672
-129,8,281,7161,-96,259697
-122,41,329,7254,10,259676
-128,33,375,7235,-77,259603
-140,37,341,7214,-115,259607
-142,57,245,7214,-120,259595
-158,71,222,7160,-144,259600
-103,115,230,7205,-90,259648
-55,168,183,7202,-95,259576
-77,217,132,7280,-75,259626
-62,272,181,7267,-181,259689
-57,310,230,7217,-142,259575
-43,330,197,7287,-197,259654
-4,314,106,7263,-174,259630
16,302,99,7213,-130,259500
93,314,127,7186,-33,259609
137,311,26,7224,-125,259599
143,314,-39,7274,-130,259559
156,335,-28,7315,-125,259511
207,350,-12,7255,-106,259479
251,355,-96,7287,-143,259607
289,316,-155,7158,-169,259633
315,269,-159,7210,-85,259710
364,275,-157,7197,-95,259586
397,318,-208,7252,-70,259473
383,325,-234,7234,-54,259553
373,340,-177,7158,-128,259660
386,356,-77,7270,-129,259617
425,383,-107,7228,-197,259589
458,359,-177,7223,-129,259626
442,294,-163,7231,-95,259542
475,283,-86,7287,-183,259601
486,296,-155,7297,-161,259566
433,310,-227,7272,-76,259591
384,313,-185,7166,-144,259597
325,300,-145,7234,-67,259654
272,326,-182,7167,-91,259581
216,312,-228,7196,-116,259555
157,281,-193,7214,-149,259576
122,259,-75,7232,-153,259504
82,249,-51,7287,-39,259644
13,249,-25,7171,-119,259645
-50,249,41,7244,-113,259647
-116,243,75,7186,-101,259739
-185,258,89,7138,-98,259666
-254,250,119,7162,-111,259560
-278,206,155,7238,-21,259552
-254,186,202,7262,-33,259645
-285,184,248,7269,-97,259662
-338,201,285,7233,-135,259630
-387,222,360,7208,-123,259634
-452,218,374,7213,-137,259683
-495,213,334,7221,-110,259643
-514,176,324,7238,-127,259550
-528,126,400,7217,-106,259633
-507,86,425,7185,-142,259702
-511,60,393,7237,-119,259677
-551,83,426,7206,-184,259603
-566,108,524,7161,-63,259620
-578,85,489,7248,-86,259662
-596,70,432,7260,-96,259578
-586,72,441,7226,-85,259615
-542,59,497,7315,-56,259573
-461,52,450,7228,-108,259509
-408,42,343,7214,-104,259646
-383,65,343,7256,-149,259660
-334,98,321,7149,-103,259547
-310,110,208,7229,-90,259536
-297,138,96,7266,-96,259612
-289,180,59,7261,-114,259667
-262,189,-2,7197,-125,259591
-164,204,14,7229,-109,259620
-95,196,54,7301,-156,259644
-49,208,144,7277,-229,259585
4,251,191,7256,-150,259601
29,274,133,7282,-133,259577
31,249,-3,7227,-119,259698
62,215,-55,7205,-136,259599
71,159,-132,7228,-145,259591
153,127,-258,7207,-128,259523
197,132,-339,7228,-61,259551
190,146,-284,7281,-110,259580
216,168,-270,7266,-171,259649
222,191,-294,7278,-133,259707
193,209,-294,7281,-120,259651
176,183,-240,7269,-133,259512
220,138,-188,7245,-92,259585
255,131,-153,7229,-117,259540
247,107,-181,7221,-29,259617
223,132,-53,7232,-89,259652
196,148,38,7278,-107,259511
153,151,-3,7307,-131,259531
96,168,-61,7221,-141,259718
50,154,-5,7317,-83,259590
8,122,-16,7260,-98,259646
14,132,-35,7252,-73,259606
-25,114,-74,7197,-111,259495
-76,113,32,7229,-150,259499
-90,142,139,7242,-128,259536
-147,175,129,7238,-112,259584
-230,199,77,7270,-83,259639
-287,208,148,7282,-51,259622
-319,198,197,7244,-109,259655
-318,192,227,7200,-73,259639
-353,153,230,7187,-102,259578
-367,133,319,7176,-108,259641
-385,141,385,7273,-144,259659
-453,184,375,7254,-94,259658
-530,221,310,7228,-141,259663
-590,236,307,7243,-114,259604
-598,229,301,7265,-81,259575
-590,240,307,7233,-73,259635
-590,232,347,7308,-55,259626
-570,265,442,7231,-125,259527
-517,275,443,7175,-123,259635
-526,246,403,7263,-79,259528
-548,228,436,7311,-185,259611
-529,231,467,7292,-99,259582
-507,232,391,7207,-77,259621
-454,237,328,7146,-109,259647
-430,213,356,7215,-138,259542
-386,189,420,7258,-144,259549
-326,166,406,7133,-52,259635
-314,146,342,7179,-123,259676
-296,132,296,7233,-128,259634
-285,123,255,7272,-141,259583
-244,130,181,7240,-148,259717
-179,123,128,7272,-45,259670
-153,67,87,7282,-56,259565
-119,50,190,7177,-80,259617
-97,47,249,7230,-111,259603
-113,21,192,7285,-115,259724
-126,-4,146,7266,-139,259621
-114,8,135,7143,-140,259572
-76,-10,-13,7200,-100,259520
-41,-38,-153,7164,-168,259532
-12,-44,-172,7281,-179,259513
14,-41,-144,7179,-111,259478
56,-30,-198,7173,-169,259659
49,-22,-227,7291,-146,259680
-11,-39,-253,7291,-193,259535
-43,-40,-260,7176,-158,259506
-39,-29,-313,7224,-111,259646
-16,-23,-344,7166,-28,259600
-26,-61,-293,7227,-67,259630
1,-74,-197,7308,-168,259514
15,-56,-135,7240,-117,259594
-36,-33,-130,7243,-116,259566
-101,-24,-57,7213,-119,259591
-159,-40,-27,7197,-46,259624
-195,-32,-65,7205,-104,259614
-185,-11,-76,7227,-135,259590
-204,-1,14,7161,-116,259555
-218,21,91,7220,-186,259515
-211,83,106,7228,-125,259634
-224,141,82,7191,-107,259621
-261,179,151,7233,-108,259718
-279,212,184,7264,-72,259672
-284,229,154,7259,-123,259610
-275,226,148,7206,-110,259623
-302,223,274,7247,-50,259573
-305,199,326,7217,-74,259510
-272,226,359,7205,-114,259580
-326,218,416,7252,-75,259685
-368,206,493,7200,-68,259652
-388,194,441,7205,-31,259677
-379,190,358,7178,-99,259544
-356,185,312,7149,-114,259596
-361,136,327,7157,-68,259636
-323,101,345,7215,-117,259586
-296,90,330,7220,-169,259598
-328,65,346,7293,-107,259552
-360,42,353,7251,-86,259598
-345,22,301,7315,-66,259566
-306,29,226,7347,-178,259608
-271,45,143,7236,-165,259562
-215,52,114,7247,-75,259626
-176,49,139,7211,-90,259670
-135,48,173,7276,-113,259644
-134,28,193,7217,-131,259586
-141,25,232,7199,-118,259611
-95,34,188,7179,-132,259531
-85,58,92,7189,-175,259530
-32,79,30,7220,-144,259588
24,96,42,7264,-144,259683
67,88,-30,7242,-133,259605
99,93,-110,7207,-138,259597
99,120,-66,7224,-131,259625
79,127,-5,7213,-119,259650
78,125,-23,7152,-151,259597
125,117,-72,7291,-157,259610
165,125,-42,7213,-100,259630
208,159,55,7248,-120,259598
273,183,53,7190,-99,259511
320,179,-27,7229,-146,259599
304,184,9,7252,-120,259617
268,203,62,7236,-153,259641
256,226,-18,7225,-115,259705
272,244,-70,7183,-121,259630
251,239,-57,7217,-122,259508
274,236,-29,7274,-126,259536
310,236,-45,7239,-139,259614
305,254,-7,7267,-137,259567
258,239,38,7265,-151,259623
213,212,54,7217,-120,259586
188,209,34,7216,-55,259641
161,215,-27,7224,-157,259544
140,223,-24,7270,-126,259562
149,241,53,7279,-117,259672
172,214,56,7192,-110,259635
185,198,68,7228,-59,259577
119,182,118,7251,-64,259502
85,170,181,7268,-68,259593
65,171,128,7333,-147,259630
45,149,43,7324,-72,259604
47,151,20,7281,-105,259504
44,194,52,7278,-122,259539
69,233,28,7255,-102,259652
93,246,2,7188,-98,259611
50,188,68,7123,-132,259520
20,163,118,7223,-169,259629
-1,177,94,7212,-82,259575
-40,179,21,7218,-125,259606
-26,203,33,7269,-110,259643
-27,235,61,7278,-54,259646
-14,248,51,7254,-105,259662
26,277,68,7250,-91,259602
-6,272,144,7235,-16,259571
-31,275,212,7216,-66,259528
-21,280,198,7181,-114,259531
-21,270,168,7158,-142,259583
-12,276,170,7206,-61,259654
36,297,205,7234,-90,259556
80,308,188,7219,-61,259623
97,296,158,7150,-138,259640
76,256,230,7229,-174,259601
91,237,259,7230,-143,259549
67,231,154,7271,-64,259579
42,216,97,7275,-118,259493
18,209,128,7237,-118,259616
47,206,109,7210,-108,259733
82,249,31,7247,-113,259764
92,265,-4,7298,-196,259563
52,219,45,7258,-155,259647
13,187,103,7233,-104,259606
27,173,44,7227,-122,259580
-27,159,-43,7304,-77,259642
-31,163,-28,7205,-55,259599
-18,186,-3,7248,-46,259602
-14,170,-111,7243,-100,259688
5,179,-98,7270,-92,259613
-39,149,-19,7270,-93,259609
-40,137,5,7233,-87,259595
-72,121,-51,7192,-102,259588
-96,90,-71,7230,-180,259465
-79,82,25,7236,-171,259614
-96,114,31,7219,-124,259643
-50,160,-12,7263,-110,259623
-127,210,57,7283,-107,259497
-150,176,165,7234,-130,259564
-166,168,228,7233,-141,259643
-187,182,175,7293,-200,259588
-230,169,116,7212,-135,259604
-238,193,172,7200,-67,259644
-221,213,167,7238,-95,259594
-207,238,92,7315,-138,259526
-204,248,93,7259,-128,259552
-237,224,229,7234,-152,259515
-258,215,258,7237,-108,259603
-296,222,221,7264,-134,259576
-328,231,256,7227,-121,259604
-298,229,311,7276,-118,259659
-291,244,263,7295,-195,259686
-267,284,180,7160,-101,259648
-274,267,177,7177,-146,259666
-301,225,236,7227,-135,259562
-280,210,249,7198,-152,259648
-296,199,151,7269,-164,259624
-290,165,106,7236,-97,259616
-263,153,137,7222,-81,259556
-226,159,114,7180,-20,259639
-174,192,7,7218,-146,259588
-191,234,37,7274,-131,259609
-172,194,119,7260,-89,259675
-163,152,121,7200,-93,259671
-171,132,75,7213,-41,259676
-198,121,114,7213,-62,259576
-141,163,149,7096,17,259559
-99,197,59,7197,10,259657
-93,248,-45,7286,-95,259708
-75,286,-77,7232,-81,259651
-78,273,-19,7172,-117,259613
-94,239,-23,7252,-73,259635
-101,215,-28,7248,-67,259539
-112,182,12,7215,-38,259520
-88,189,74,7269,-136,259604
-84,228,37,7363,-179,259616
-60,273,-24,7275,-142,259584
-66,289,10,7251,-95,259611
-77,261,72,7198,-102,259663
-71,256,39,7252,-129,259631
-97,248,5,7220,-102,259577
-118,214,53,7221,-87,259627
-104,158,92,7252,-167,259584
-80,161,52,7214,-188,259649
-104,193,9,7183,-133,259639
-124,218,48,7229,-113,259629
-125,191,123,7268,-68,259621
-139,149,146,7299,-128,259552
-184,121,131,7263,-124,259558
-225,96,214,7226,-128,259683
-215,93,281,7253,-98,259630
-208,97,255,7196,-94,259603
-227,101,204,7293,-101,259590
-234,112,212,7161,-57,259560
-277,100,281,7249,-12,259608
-278,96,270,7185,-73,259662
-297,63,200,7163,-122,259656
-327,26,230,7241,-117,259533
-308,27,260,7247,-96,259610
-308,54,169,7258,-141,259652
-297,108,101,7283,-163,259539
-337,122,155,7254,-109,259560
-314,90,176,7223,-115,259567
-317,66,130,7259,-124,259620
-336,46,104,7250,-126,259573
-329,41,187,7278,-169,259530
-319,41,175,7291,-157,259541
-311,71,167,7297,-167,259521
-319,112,126,7239,-91,259598
-287,159,156,7270,-147,259532
-294,166,174,7257,-137,259552
-300,158,186,7253,-163,259711
-308,127,194,7236,-138,259695
-301,105,256,7220,-140,259616
-292,131,239,7217,-126,259615
-259,165,165,7241,-93,259541
-264,201,128,7192,-130,259587
-245,219,180,7248,-149,259635
-228,210,174,7186,-248,259659
-236,185,133,7193,-177,259663
-240,166,178,7256,-102,259553
-241,148,262,7231,-156,259656
-191,120,226,7192,-180,259613
-173,139,197,7283,-76,259645
-165,158,183,7277,-60,259691
-117,176,113,7246,-99,259583
-93,182,100,7239,-20,259571
-89,148,43,7245,-56,259573
-116,78,13,7175,-146,259493
-115,19,19,7219,-111,259647
-103,11,50,7198,-117,259558
-95,30,-8,7219,-81,259580
-100,62,-50,7173,-66,259549
-103,94,-22,7251,-112,259556
-95,94,6,7210,-162,259582
-124,63,-55,7228,-164,259621
-137,-5,-78,7247,-158,259610
-143,-70,32,7276,-126,259651
-130,-100,44,7309,-110,259628
-106,-75,-38,7243,-84,259590
-164,4,-10,7209,-66,259556
-141,23,51,7175,-78,259581
-141,32,-14,7185,-112,259551
-123,59,-68,7194,-121,259618
-178,30,-60,7216,-132,259687
-177,3,43,7213,-121,259683
-145,-11,77,7281,-128,259722
-167,-16,26,7265,-105,259592
-177,14,102,7285,-149,259483
-147,55,141,7291,-112,259574
-157,101,152,7315,-83,259624
-164,130,125,7289,-112,259665
-184,100,154,7165,-57,259715
-196,54,220,7220,-166,259668
-148,26,247,7278,-218,259661
-162,45,205,7290,-107,259648
-173,64,241,7220,-110,259604
-167,85,287,7242,-92,259546
-166,128,291,7225,-116,259672
-163,139,255,7269,-142,259693
-150,117,254,7167,-66,259524
-129,70,316,7247,-106,259629
-106,40,279,7241,-76,259614
-92,66,199,7210,-81,259665
-87,97,196,7243,-120,259556
-61,124,182,7261,-157,259537
-57,126,118,7193,-184,259510
-66,91,92,7193,-159,259575
-63,53,130,7112,-216,259569
-40,19,148,7167,-180,259611
20,19,105,7195,-152,259666
36,49,94,7245,-194,259619
37,70,90,7266,-104,259635
87,91,64,7194,-129,259612
78,146,65,7220,-50,259563
83,171,23,7210,-90,259573
104,143,11,7200,-91,259589
115,87,45,7243,-95,259503
170,74,26,7213,-92,259474
170,93,-66,7195,-113,259550
170,111,-83,7184,-96,259642
192,132,-38,7251,-108,259625
189,136,-119,7290,-175,259654
189,131,-159,7324,-140,259578
173,125,-44,7265,-173,259629
212,83,77,7240,-88,259664
242,56,68,7290,-33,259588
213,70,72,7243,-117,259581
219,101,106,7130,-133,259698
235,138,41,7166,-33,259615
227,168,24,7257,-78,259606
210,195,16,7280,-173,259628
185,198,5,7297,-189,259570
209,165,-3,7223,-66,259603
242,144,9,7208,-130,259537
207,133,73,7246,-53,259571
196,138,93,7241,-73,259580
200,172,81,7151,-147,259520
150,211,46,7272,-146,259655
124,271,51,7200,-139,259579
114,272,44,7250,-85,259578
127,245,73,7247,-93,259497
129,199,68,7167,-75,259502
94,168,100,7218,-151,259637
83,208,152,7229,-150,259664
89,239,131,7291,-167,259546
44,237,107,7220,-131,259566
16,235,108,7136,-85,259551
-23,229,151,7223,-118,259478
-15,201,140,7267,-127,259420
23,171,114,7213,-89,259464
3,151,176,7206,-135,259578
20,173,245,7249,-139,259574
43,179,186,7275,-149,259662
20,224,159,7208,-178,259678
-39,269,173,7214,-63,259640
-44,294,169,7327,-4,259668
-38,251,132,7229,-69,259649
-28,218,120,7253,-140,259599
-54,217,146,7252,-141,259621
-21,255,129,7219,-123,259769
8,307,69,7258,-112,259584
-30,323,19,7283,-106,259535
-48,335,-6,7207,-100,259555
-49,340,-69,7206,-137,259504
-62,325,-76,7247,-153,259584
-53,288,-95,7249,-98,259597
-65,270,-37,7249,-141,259676
-63,273,0,7218,-72,259538
-56,308,10,7243,-33,259591
-77,321,0,7259,-96,259603
-88,336,56,7228,-127,259644
-97,318,86,7202,-68,259631
-74,289,81,7207,-41,259589
-48,248,69,7220,-66,259533
-69,239,150,7265,-123,259593
-70,266,166,7233,-117,259619
-69,292,71,7228,-135,259598
-118,294,37,7220,-70,259496
-152,309,2,7258,-101,259550
-112,318,11,7219,-77,259638
-126,284,8,7271,-158,259583
-138,237,59,7235,-134,259653
-156,220,95,7222,-130,259650
-126,238,116,7210,-158,259574
-128,270,148,7284,-62,259582
-187,272,143,7242,-66,259566
-210,285,164,7214,-98,259592
-251,285,181,7228,-75,259613
-233,292,216,7249,-56,259530
-209,246,204,7256,-76,259526
-231,208,255,7245,-87,259562
-206,191,285,7230,-118,259629
-190,181,154,7234,-176,259626
-223,200,120,7240,-169,259591
-251,240,88,7249,-167,259692
-277,229,19,7230,-94,259668
-290,212,-22,7174,-136,259611
-261,202,24,7184,-77,259561
-263,191,159,7196,-149,259576
-243,177,169,7208,-155,259634
-240,183,102,7246,-67,259628
-301,177,67,7221,-89,259659
-329,188,72,7181,-146,259801
-322,194,44,7235,-100,259681
-300,199,101,7215,-103,259584
-284,148,88,7200,-88,259729
-245,140,158,7248,-112,259628
-203,179,166,7248,-99,259583
-182,200,68,7260,-114,259622
-194,207,58,7179,-101,259626
-277,242,181,7172,-69,259696
-258,241,126,7203,-77,259597
-241,266,19,7228,-121,259591
-227,271,54,7220,-65,259556
-195,290,211,7240,-87,259554
-144,303,226,7229,-76,259510
-98,291,150,7183,-13,259591
-147,294,214,7220,-92,259638
-156,263,248,7200,-209,259656
-160,223,95,7256,-191,259600
-157,218,34,7235,-157,259584
-169,195,90,7219,-131,259617
-162,205,153,7204,-35,259575
-101,226,125,7215,-78,259549
-109,231,48,7197,-10,259458
-112,212,82,7257,-36,259521
-123,225,143,7188,-196,259580
-120,224,66,7170,-124,259527
-102,226,-13,7317,-100,259628
-123,185,72,7314,-86,259650
-111,130,197,7260,-147,259708
-76,124,175,7233,-127,259647
-79,112,87,7211,-141,259560
-120,152,215,7267,-95,259669
-153,168,292,7205,-205,259586
-146,148,190,7254,-96,259637
-203,168,179,7263,-88,259735
-196,136,266,7125,-171,259702
-179,115,302,7195,-65,259597
-146,103,190,7256,-71,259611
-175,96,137,7223,-99,259616
-201,97,160,7202,-136,259588
-231,112,133,7209,-15,259528
-241,150,32,7241,-83,259596
-266,170,-1,7203,-27,259610
-279,130,48,7281,-149,259571
-281,82,142,7268,-164,259552
-251,67,156,7198,-167,259640
-241,50,130,7257,-121,259613
-262,49,254,7186,-119,259531
-266,51,256,7161,-116,259624
-287,68,116,7211,-80,259560
-306,76,19,7151,-111,259458
-311,59,86,7208,-114,259555
-298,20,117,7255,-101,259564
-264,10,105,7235,-35,259590
-285,-7,92,7214,-42,259592
-285,-14,146,7189,-70,259585
-277,21,169,7227,-92,259598
-294,30,103,7272,-152,259680
-299,40,117,7243,-158,259476
-310,5,177,7229,-117,259630
-275,-8,140,7256,-117,259553
-230,0,99,7296,-172,259630
-204,-31,88,7228,-161,259560
-206,-42,168,7200,-93,259567
-208,-30,160,7226,-146,259562
-224,2,96,7222,-169,259584
-235,33,86,7245,-109,259580
-212,70,156,7240,-74,259565
-179,79,137,7231,-138,259608
-138,72,99,7214,-77,259585
-128,59,125,7211,-122,259653
-135,62,218,7232,-133,259578
-128,58,217,7224,-179,259525
-151,25,39,7255,-129,259639
-152,12,1,7176,-161,259579
-139,11,83,7166,-88,259612
-104,12,120,7250,-94,259623
-71,2,32,7269,-184,259572
-78,-18,29,7196,-162,259509
-94,-30,81,7192,-141,259628
-81,-12,39,7305,-29,259612
-114,-12,-74,7290,-38,259593
-121,-27,-52,7302,-121,259614
-106,-26,85,7227,-175,259617
-77,1,108,7252,-221,259576
-48,40,25,7191,-75,259544
-48,52,31,7172,-83,259614
-48,48,125,7171,-51,259685
-68,34,113,7164,-96,259624
-90,4,1,7139,-127,259536
-133,-11,54,7164,-146,259537
-118,-4,139,7223,-113,259568
-89,35,165,7185,-127,259511
-80,48,106,7189,-99,259573
-60,55,145,7177,-83,259550
-66,66,238,7241,-127,259674
-59,86,143,7265,-116,259705
-91,95,5,7262,-100,259637
-94,70,-3,7173,-168,259713
-79,30,19,7224,-137,259698
-70,55,12,7262,-117,259589
-57,70,28,7297,-125,259688
-41,92,146,7215,-21,259533
-46,87,245,7090,-129,259600
-32,94,170,7095,-198,259742
-32,103,60,7069,-147,259681
-46,101,114,7250,-69,259587
-20,91,160,7310,-120,259645
4,114,108,7244,-188,259655
19,127,8,7274,-167,259527
3,116,75,7284,-77,259697
15,84,149,7256,-94,259639
60,88,100,7248,-41,259598
-5,137,98,7242,-108,259547
26,130,122,7336,-155,259519
58,132,150,7191,-170,259628
91,147,114,7224,-131,259651
122,175,83,7215,-130,259591
127,173,130,7249,-144,259529
127,150,141,7175,-173,259584
154,188,132,7158,-139,259659
123,208,93,7219,-97,259435
112,213,120,7267,-20,259461
140,216,124,7246,-58,259546
157,208,28,7188,-126,259656
172,225,3,7148,-94,259496
187,217,69,7260,-96,259621
193,211,66,7240,-125,259604
165,210,23,7197,-99,259503
147,203,-21,7231,-103,259520
129,206,102,7250,-129,259508
128,188,109,7281,-129,259605
157,216,76,7370,-139,259687
151,213,99,7300,-113,259589
163,147,108,7208,-102,259672
175,119,118,7249,-160,259612
171,106,-27,7271,-101,259533
130,114,-78,7260,-137,259616
123,116,33,7197,-77,259556
157,104,11,7179,-92,259559
131,149,-23,7217,-80,259650
128,207,3,7238,-75,259599
102,236,69,7239,-101,259480
70,201,29,7174,-140,259546
76,197,15,7271,-154,259543
38,184,29,7195,-140,259641
29,170,31,7197,-110,259597
34,197,44,7233,-118,259569
22,218,31,7194,-130,259528
14,240,52,7180,-108,259560
-3,251,163,7189,-115,259614
-15,236,226,7197,-73,259614
-42,228,149,7176,-160,259515
-81,210,91,7175,-167,259612
-104,197,102,7294,-82,259583
-81,217,99,7291,-134,259656
-80,231,63,7223,-108,259592
-62,270,90,7258,-105,259639
-51,262,144,7226,-97,259614
-58,265,153,7310,-133,259579
-70,254,117,7267,-102,259493
-122,229,79,7258,-119,259537
-136,215,167,7241,-84,259643
-127,201,186,7262,-71,259519
-126,229,150,7239,-117,259613
-107,277,131,7200,-121,259599
-61,296,132,7196,-146,259677
-97,331,176,7175,-202,259729
-82,323,129,7222,-118,259673
-118,298,143,7223,-100,259594
-131,271,178,7208,-153,259712
-117,267,121,7228,-75,259628
-111,311,85,7240,-111,259529
-86,359,122,7298,-98,259621
-54,349,146,7229,-39,259672
-23,320,121,7181,-73,259646
-30,297,76,7229,-138,259685
-82,255,99,7274,-83,259651
-85,232,103,7221,-79,259603
-80,192,43,7240,-180,259602
-96,199,44,7203,-168,259656
-109,251,128,7270,-57,259670
-77,300,103,7257,-119,259662
-77,337,76,7246,-153,259609
-76,325,54,7243,-108,259487
-122,248,32,7242,-144,259598
-134,221,53,7257,-130,259607
-130,188,-3,7253,-121,259491
-159,223,-35,7246,-101,259507
-160,255,-14,7175,-199,259662
-149,283,-4,7288,-137,259606
-146,287,-32,7282,-120,259574
-166,248,-93,7220,-145,259506
-192,224,-43,7200,-109,259653
-199,208,38,7214,-120,259610
-216,199,13,7245,-114,259548
-241,261,64,7233,-102,259423
-254,322,178,7201,-85,259601
-242,384,166,7236,-28,259567
-258,396,91,7305,-103,259685
-279,397,70,7258,-76,259698
-310,374,159,7209,-125,259574
-287,333,165,7232,-149,259591
-276,312,128,7277,-153,259566
-302,276,124,7250,-79,259552
-302,282,254,7200,-46,259675
-295,295,278,7242,-96,259598
-296,290,226,7313,-54,259521
-324,269,197,7294,-105,259587
-365,193,232,7244,-116,259562
-331,154,236,7294,-100,259518
-329,138,178,7260,-145,259512
-323,148,131,7243,-131,259551
-316,168,197,7274,-118,259676
-305,168,183,7292,-95,259720
-269,175,102,7225,-99,259576
-309,168,79,7228,-113,259508
-309,128,86,7216,-57,259539
-316,125,58,7226,-81,259642
-295,106,53,7220,-100,259639
-305,108,69,7223,-142,259616
-259,147,136,7165,-122,259639
-222,172,190,7265,-138,259652
-222,206,196,7292,-46,259596
-228,184,184,7259,-46,259581
-236,128,196,7214,-59,259565
-215,119,240,7254,-60,259428
-191,108,195,7244,-115,259563
-197,138,153,7245,-129,259587
-157,198,209,7278,-59,259631
-130,257,171,7168,-146,259518
-134,301,149,7181,-83,259550
-132,294,130,7188,-80,259625
-141,221,176,7225,-37,259503
-123,148,170,7258,-136,259573
-101,108,103,7255,-159,259530
-114,106,134,7270,-141,259509
-101,139,160,7209,-136,259575
-73,192,108,7266,-121,259571
-75,227,16,7220,-98,259567
-88,230,0,7183,-113,259600
-110,170,17,7217,-102,259762
-103,94,54,7230,-82,259500
-131,29,35,7290,-98,259511
-136,-1,39,7300,-109,259473
-178,52,56,7301,-151,259514
-114,69,15,7234,-91,259618
-117,78,16,7224,-130,259641
-126,54,10,7234,-135,259614
-138,14,16,7266,-127,259588
-126,-24,4,7239,-84,259543
-147,-53,29,7235,-95,259627
-166,-45,81,7250,-118,259628
-135,23,128,7258,-109,259577
-135,76,69,7246,-80,259585
-150,127,59,7248,-81,259655
-186,151,126,7184,-56,259507
-190,123,125,7188,-131,259582
-177,82,136,7207,-160,259624
-186,32,163,7190,-108,259670
-183,30,251,7193,-125,259599
-175,92,276,7211,-46,259699
-153,156,231,7202,-99,259570
-153,190,218,7185,-145,259528
-177,186,239,7287,-98,259584
-188,151,242,7256,-113,259632
-191,126,241,7224,-99,259611
-188,64,218,7224,-56,259485
-197,44,255,7191,-73,259545
-147,55,263,7205,-96,259589
-173,86,197,7193,-93,259618
-152,114,132,7196,-76,259571
-177,114,159,7142,-132,259601
-172,81,153,7180,-113,259662
-156,31,116,7239,-76,259577
-153,-17,103,7264,-163,259670
-112,-11,171,7216,-75,259641
-86,-11,121,7189,-93,259585
-71,6,64,7290,-136,259614
-95,13,41,7274,-156,259611
-103,-8,52,7165,-119,259576
-98,-24,70,7231,-114,259542
-81,-67,96,7211,-119,259653
-66,-103,88,7250,-146,259609
-65,-111,112,7290,-124,259595
-32,-64,55,7193,-80,259699
-26,4,-11,7297,-135,259689
-32,33,-30,7268,-153,259584
-48,32,-16,7240,-109,259676
-62,-4,-10,7274,-50,259614
-46,-10,37,7280,-108,259585
-47,-20,65,7234,-84,259528
-18,-19,64,7202,-96,259527
5,36,21,7252,-105,259609
-2,76,-69,7292,-94,259646
-10,125,-73,7176,-90,259623
-43,149,-82,7165,-107,259612
-40,114,-67,7197,-102,259647
-71,50,-12,7199,-4,259600
-90,-13,97,7152,-103,259563
-84,-3,213,7246,-94,259666
-37,59,192,7160,-230,259652
-27,100,121,7235,-189,259626
-44,138,117,7234,-149,259640
-66,135,145,7213,-145,259752
-81,119,100,7269,-117,259570
-75,63,120,7253,-59,259491
-86,-1,192,7285,-130,259542
-82,-29,265,7229,-141,259442
-57,-20,248,7217,-150,259613
-67,26,201,7194,-105,259558
-95,71,223,7248,-69,259595
-113,88,193,7243,-129,259557
-104,60,129,7253,-109,259658
-120,-2,77,7228,-84,259604
-130,-43,145,7237,-147,259600
-115,-47,137,7193,-147,259565
-76,1,120,7204,-114,259580
-81,20,72,7246,-80,259596
-68,59,93,7259,-134,259759
-74,86,104,7341,-126,259720
-67,94,10,7239,-98,259613
-47,73,-23,7226,-70,259560
-49,34,43,7251,-105,259534
-28,28,68,7291,-78,259657
15,82,30,7241,-107,259651
6,122,-20,7231,-160,259626
-3,157,50,7131,-189,259568
12,172,69,7207,-156,259508
10,187,8,7271,-114,259592
23,174,29,7301,-81,259572
37,125,97,7284,-111,259525
66,111,155,7229,-129,259539
113,146,74,7226,-155,259626
126,180,10,7223,-159,259528
98,227,76,7336,-53,259626
114,259,116,7284,-117,259637
111,272,114,7187,-142,259558
104,229,113,7214,-129,259595
101,174,185,7203,-147,259526
127,120,253,7206,-168,259615
163,140,168,7170,-154,259576
165,173,77,7258,-102,259624
150,199,108,7259,-123,259588
132,215,83,7308,-166,259530
118,201,-16,7249,-207,259598
105,195,-29,7272,-137,259614
100,151,53,7231,-143,259571
99,138,97,7219,-144,259606
136,159,-4,7207,-148,259522
104,199,-50,7235,-76,259538
83,252,-12,7232,-123,259502
67,275,-52,7201,-88,259555
42,286,-70,7279,-71,259562
23,262,-12,7294,-84,259673
16,193,53,7221,-139,259637
40,186,96,7264,-131,259553
47,219,35,7203,-117,259588
11,242,-24,7260,-161,259608
-20,257,-12,7275,-124,259673
-35,297,-55,7220,-99,259589
-62,330,-121,7256,-129,259607
-85,330,-73,7271,-111,259681
-111,267,58,7228,-97,259609
-45,253,136,7260,-106,259628
-46,295,142,7196,-186,259585
-81,330,172,7209,-100,259597
-84,369,258,7213,-158,259662
-94,380,239,7279,-70,259653
-98,367,186,7281,-95,259668
-99,332,200,7216,-129,259628
-116,278,257,7256,-74,259552
-64,254,276,7176,-114,259593
-34,235,242,7169,-133,259569
-41,228,247,7205,-148,259483
-53,253,251,7231,-58,259552
-61,267,211,7211,-155,259536
-115,258,116,7226,-138,259556
-144,227,129,7235,-157,259606
-151,190,204,7230,-170,259639
-114,195,139,7290,-118,259583
-111,234,46,7214,-109,259615
-114,269,52,7180,-87,259618
-106,303,111,7210,-78,259669
-129,316,69,7204,-98,259645
-141,331,50,7189,-139,259570
-174,290,74,7179,-59,259624
-176,258,150,7175,-29,259630
-141,245,111,7228,-103,259702
-126,268,-4,7198,-172,259605
-134,301,-30,7160,-225,259560
-97,360,25,7228,-175,259584
-85,383,-31,7242,-115,259667
-115,399,-73,7241,-103,259632
-147,396,-36,7246,-103,259635
-159,383,72,7248,-102,259582
-144,372,75,7186,-131,259626
-152,381,3,7201,-120,259616
-155,383,10,7242,-98,259524
-151,396,65,7267,-64,259494
-187,385,22,7214,-70,259615
-200,367,-3,7198,-166,259631
-224,305,79,7200,-125,259651
-241,225,146,7256,-144,259589
-205,216,172,7293,-196,259486
-194,232,101,7300,-160,259585
-238,239,98,7365,-89,259586
-224,261,132,7220,-125,259557
-244,284,150,7208,-91,259603
-268,285,181,7253,-62,259628
-297,253,253,7140,-190,259687
-283,240,283,7241,-199,259550
-262,246,264,7323,-139,259426
-265,215,170,7233,-108,259585
-268,187,161,7192,-90,259581
-245,212,140,7217,-89,259515
-270,245,66,7208,-73,259543
-306,247,-5,7290,-181,259595
-305,232,116,7287,-122,259682
-310,202,188,7266,-163,259664
-276,216,158,7237,-84,259492
-285,228,189,7257,-180,259506
-273,230,256,7311,-69,259608
-251,224,235,7319,-73,259685
-254,227,130,7352,-87,259688
-299,226,131,7285,2,259502
-311,196,209,7257,-123,259568
-273,190,285,7211,-79,259639
-251,211,278,7216,-74,259571
-262,188,250,7366,-33,259646
-260,170,292,7292,-54,259653
-198,160,251,7230,-74,259631
-204,156,148,7235,-76,259750
-228,138,107,7272,-138,259540
-217,98,100,7253,-92,259554
-218,81,83,7261,-73,259630
-185,98,45,7204,-78,259584
-179,103,117,7206,-101,259611
-180,75,154,7175,-82,259623
-124,77,84,7210,-125,259627
-156,109,-15,7258,-136,259555
-204,134,-12,7210,-133,259578
-196,144,3,7195,-97,259536
-221,116,-2,7201,-133,259607
-191,112,-25,7258,-90,259616
-163,96,20,7225,-138,259635
-143,78,76,7241,-106,259553
-96,101,77,7258,-94,259648
-94,124,12,7228,-114,259634
-154,99,59,7250,-105,259562
-137,71,158,7220,-153,259660
-128,44,207,7247,-74,259645
-128,50,134,7203,-166,259636
-114,48,124,7255,-128,259574
-127,41,158,7255,-150,259592
-81,71,130,7190,-179,259489
-96,103,30,7256,-109,259616
-132,103,64,7208,-68,259595
-136,75,152,7240,-91,259503
-119,31,173,7232,-109,259553
-113,28,143,7278,-196,259728
-94,41,147,7273,-125,259744
-108,14,116,7199,-144,259532
-62,10,55,7207,-101,259632
-81,17,-20,7202,-92,259778
-134,-2,9,7231,-127,259639
-131,2,91,7239,-99,259601
-139,-15,95,7190,-127,259617
-152,-7,77,7195,-106,259664
-141,-7,146,7222,-144,259618
-116,-40,160,7245,-159,259576
-74,-45,129,7196,-194,259512
-97,-31,139,7212,-175,259601
-113,-22,179,7212,-140,259455
-126,-39,151,7234,-134,259610
-117,-49,152,7222,-75,259663
-106,-25,150,7143,-71,259695
-103,-2,187,7278,-135,259729
-50,6,217,7292,-138,259595
-8,6,203,7249,-128,259562
-41,15,184,7226,-156,259590
-50,9,259,7217,-148,259650
-43,-16,279,7298,-106,259601
-15,-43,217,7248,-133,259632
-32,-70,130,7141,-133,259623
-16,-47,148,7220,-106,259490
-18,-36,70,7203,-132,259598
7,-23,-56,7260,-61,259611
-11,-6,-40,7249,-89,259512
-42,-6,13,7174,-102,259580
-33,-34,32,7261,-153,259604
-32,-38,90,7232,-132,259574
-46,-35,108,7291,-129,259535
-19,6,91,7269,-127,259563
-11,47,67,7246,-100,259519
23,42,-28,7222,-139,259546
-18,34,-115,7215,-90,259527
-45,21,-83,7255,-72,259513
-40,13,-31,7177,-66,259572
-54,-10,-39,7217,-120,259570
-44,-7,-25,7245,-170,259646
-33,67,68,7236,-85,259712
-20,106,71,7209,-123,259599
1,146,34,7238,-208,259496
-20,135,34,7225,-107,259556
-46,99,113,7146,-116,259599
-74,82,126,7230,-184,259622
-80,75,158,7225,-131,259592
-109,77,202,7214,-115,259580
-81,109,244,7215,-184,259584
-37,139,167,7225,-197,259547
-54,170,83,7210,-34,259685
-74,157,46,7219,-125,259523
-93,142,106,7194,-142,259613
-139,117,93,7210,-100,259582
-139,113,76,7223,-85,259631
-148,145,142,7172,-70,259583
-136,155,182,7232,-71,259622
-116,141,172,7183,-97,259604
-93,117,154,7205,-73,259618
-122,74,146,7217,-155,259568
-147,52,180,7274,-187,259523
-123,26,197,7282,-155,259621
-148,-16,141,7281,-206,259693
-128,1,121,7253,-178,259715
-128,57,131,7218,-73,259615
-89,127,61,7274,-133,259551
-26,169,-23,7231,-140,259583
-27,147,-29,7247,-178,259515
-14,120,41,7219,-160,259678
-54,109,10,7136,-197,259581
-58,122,-17,7256,-142,259621
-87,137,41,7226,-140,259637
-88,166,92,7227,-137,259703
-44,206,67,7176,-171,259603
-18,245,32,7222,-66,259540
-30,253,77,7176,-79,259667
9,231,116,7204,-163,259680
44,208,79,7272,-112,259575
35,188,52,7235,-97,259577
34,197,117,7276,-86,259538
38,222,133,7257,-105,259651
47,264,90,7238,-59,259651
46,264,47,7250,-172,259660
33,233,84,7197,-179,259684
34,203,146,7192,-205,259688
37,214,138,7222,-124,259551
31,252,138,7184,-129,259535
35,266,155,7170,-56,259677
73,301,170,7209,-156,259572
108,330,130,7213,-168,259557
106,361,51,7187,-142,259528
89,321,56,7208,-100,259483
94,305,121,7289,-141,259577
89,258,68,7284,-120,259557
40,234,6,7209,-100,259610
14,258,44,7311,-100,259666
15,285,-12,7238,-134,259644
31,325,-113,7257,-172,259628
55,326,-162,7212,-172,259617
24,290,-111,7216,-121,259691
-5,259,-61,7174,-140,259651
-3,280,6,7187,-113,259533
-69,272,128,7230,-47,259680
-69,274,216,7247,-120,259639
-40,320,231,7190,-122,259602
-36,374,135,7223,-64,259526
-26,398,65,7267,-85,259502
-32,356,19,7222,-149,259619
-11,316,60,7276,-131,259620
-17,295,27,7243,-205,259562
-56,268,34,7194,-70,259529
-71,280,164,7276,-101,259532
-77,305,209,7326,-94,259594
-92,347,162,7308,-188,259555
-130,365,153,7258,-115,259600
-152,333,191,7243,-148,259661
-156,270,190,7252,-165,259607
-146,238,189,7296,-159,259586
-170,207,247,7253,-154,259612
-134,206,279,7239,-100,259557
-87,258,264,7221,-110,259490
-81,327,189,7290,-97,259552
-64,368,152,7265,-58,259548
-69,345,131,7213,-49,259598
-67,297,137,7293,-137,259546
-103,246,95,7235,-32,259678
-146,232,117,7268,-140,259647
-147,226,157,7289,-165,259613
-133,258,116,7250,-126,259604
-129,305,58,7153,-149,259529
-110,341,19,7179,-145,259595
-113,351,38,7242,-143,259585
-115,290,-9,7271,-129,259484
-112,234,-35,7282,-178,259614
-150,209,-3,7253,-149,259568
-165,239,40,7260,-86,259562
-158,280,-11,7158,-64,259586
-133,302,-88,7191,-69,259575
-118,325,-70,7242,-101,259515
-110,354,-38,7285,-116,259575
-82,339,-133,7240,-148,259589
-88,292,-147,7275,-125,259711
-144,238,-5,7186,-154,259592
-157,218,92,7242,-135,259619
-143,256,43,7331,-67,259587
-169,325,79,7217,-130,259608
-159,356,176,7181,-94,259609
-153,343,220,7144,-166,259602
-140,300,243,7276,-122,259686
-178,272,245,7318,-89,259688
-212,251,304,7196,-144,259703
-203,241,318,7247,-176,259680
-188,254,272,7255,-139,259577
-200,267,207,7261,-135,259583
-190,305,178,7201,-101,259516
-188,304,163,7227,-88,259553
-185,274,146,7241,-57,259596
-223,212,179,7278,-133,259582
-266,169,296,7208,-98,259597
-256,169,380,7259,-167,259487
-243,173,282,7243,-131,259606
-249,188,242,7246,-94,259625
-252,198,255,7250,-39,259591
-229,174,190,7260,-62,259567
-203,150,154,7239,-65,259595
-229,117,147,7215,-83,259598
-238,64,182,7216,-84,259706
-208,32,195,7224,-135,259629
-236,50,163,7270,-106,259605
-250,88,63,7264,-112,259499
-202,122,16,7251,-158,259561
-258,144,14,7235,-143,259687
-235,63,-35,7239,-157,259628
-256,-12,-55,7196,-149,259645
-262,-39,50,7267,-156,259552
-225,-49,60,7242,-121,259612
-213,-27,2,7225,-58,259686
-211,18,-60,7236,-107,259675
-205,68,-46,7210,-204,259632
-205,67,-89,7263,-125,259675
-174,44,-103,7163,-107,259584
-197,0,-47,7289,-104,259548
-207,-56,110,7224,-123,259648
-150,-53,197,7253,-121,259670
-168,-17,171,7196,-125,259585
-169,50,183,7202,-99,259587
-132,88,211,7168,-144,259524
-131,88,187,7257,-116,259600
-124,43,144,7303,-132,259579
-134,-22,156,7274,-93,259540
-162,-73,208,7209,-24,259626
-125,-66,224,7224,-68,259658
-135,-32,203,7292,-107,259596
-162,8,166,7264,-78,259493
-129,66,188,7206,-71,259530
-114,98,111,7165,-147,259551
-122,98,22,7244,-111,259645
-124,17,25,7184,-109,259560
-134,-39,146,7292,-128,259586
-104,-33,163,7285,-134,259589
-92,21,107,7242,-116,259648
-104,72,103,7277,-82,259599
-96,101,107,7263,-114,259618
-117,110,36,7263,-106,259556
-126,104,1,7204,-51,259573
-137,70,48,7218,-74,259574
-171,13,165,7195,-102,259637
-164,-8,127,7216,-151,259511
-157,18,92,7186,-120,259578
-177,41,107,7197,-93,259566
-122,97,125,7145,-72,259572
-112,110,51,7214,-160,259554
-124,104,31,7213,-149,259566
-162,39,123,7254,-159,259565
-154,-21,238,7186,-88,259557
-147,-18,258,7241,-152,259561
-151,14,225,7275,-142,259566
-160,31,226,7223,-91,259528
-150,53,170,7292,-62,259572
-140,97,54,7288,-24,259620
-137,114,8,7219,-129,259479
-157,29,37,7181,-88,259514
-177,-77,87,7215,-179,259595
-132,-104,92,7181,-130,259641
-137,-93,45,7163,-118,259582
-161,-55,66,7245,-120,259679
-141,4,79,7279,-51,259702
-156,24,41,7262,-97,259572
-185,4,18,7253,-114,259589
-190,-32,118,7235,-104,259661
-175,-69,210,7196,-149,259590
-114,-97,214,7230,-77,259662
-96,-102,178,7190,-151,259650
-57,-63,197,7233,-106,259580
-31,1,151,7191,-53,259620
-34,49,30,7197,-114,259568
-42,26,0,7260,-92,259533
-74,-31,99,7198,-122,259682
-57,-60,144,7179,-135,259587
-46,-35,120,7252,-197,259620
-65,-9,77,7261,-135,259579
-43,36,131,7287,-159,259549
-38,57,76,7251,-176,259803
-28,57,-56,7249,-156,259787
-26,58,-55,7183,-87,259635
-14,34,55,7297,-165,259639
-3,-28,90,7293,-187,259683
35,-72,90,7244,-130,259647
-2,-47,164,7238,-95,259631
0,-19,151,7287,-102,259649
49,44,76,7223,-95,259602
35,88,10,7207,-62,259578
18,95,6,7310,-48,259475
31,65,48,7276,-138,259570
38,46,47,7277,-133,259565
68,52,54,7273,-82,259745
73,79,82,7272,-76,259656
68,129,112,7228,-126,259638
63,176,84,7239,-98,259598
44,216,55,7295,-114,259676
5,206,80,7242,-49,259572
-22,149,153,7225,-114,259572
-19,114,212,7216,-118,259583
-13,93,178,7281,-188,259579
-10,128,151,7281,-63,259608
24,193,130,7237,-98,259621
53,243,30,7257,-106,259661
38,270,-34,7294,-94,259710
33,263,-6,7257,-130,259561
1,226,77,7218,-94,259704
-8,184,134,7181,-110,259590
3,153,143,7204,-110,259596
-7,156,206,7254,-136,259650
8,206,235,7221,-228,259646
49,288,121,7188,-140,259596
28,333,-20,7229,-95,259521
1,333,-87,7256,-58,259524
-9,282,-94,7203,-70,259563
-14,256,-82,7193,-131,259469
-13,274,-70,7220,-158,259565
-29,263,2,7237,-95,259623
-16,289,147,7255,-103,259673
-2,303,200,7184,-123,259536
-19,319,165,7240,-112,259623
-21,311,203,7215,-58,259697
-30,294,239,7201,-41,259732
-21,272,180,7184,-75,259668
2,245,67,7221,-180,259641
-31,219,73,7254,-159,259558
-16,249,79,7185,-89,259619
20,300,-20,7215,-104,259698
-16,298,-83,7181,-88,259644
-20,270,58,7240,-77,259602
-54,212,147,7264,-115,259588
-51,169,97,7327,-124,259652
-38,167,100,7267,-108,259558
-39,135,177,7235,-98,259520
-18,164,204,7168,-108,259593
7,231,109,7222,-116,259686
-17,296,36,7260,-68,259599
-17,348,114,7247,-62,259562
-27,346,158,7230,-53,259548
-45,339,160,7209,-59,259651
-40,338,159,7264,-82,259592
-51,334,212,7209,-127,259690
-30,374,219,7256,-71,259574
-24,412,167,7240,-77,259641
-72,423,74,7206,-42,259657
-108,417,110,7242,-66,259615
-115,397,146,7230,-154,259700
-125,398,105,7205,-196,259649
-114,378,72,7223,-107,259578
-146,372,129,7239,-70,259600
-124,392,117,7223,-106,259554
-103,443,43,7237,-75,259594
-143,464,-78,7230,-103,259568
-165,457,-86,7265,-116,259614
-182,421,-32,7221,-91,259611
-175,420,-9,7190,-97,259598
-161,408,-12,7199,-131,259571
-168,383,97,7161,-148,259642
-142,357,117,7177,-67,259594
-119,360,76,7218,-82,259653
-156,341,70,7308,-182,259606
-192,326,169,7214,-105,259639
-209,280,154,7220,-143,259551
-189,283,144,7233,-114,259564
-206,296,138,7239,-94,259690
-195,309,177,7215,-109,259715
-171,354,183,7254,-70,259674
-147,398,89,7220,-60,259560
-190,419,34,7243,-43,259606
-218,399,97,7200,-140,259660
-236,372,121,7169,-111,259628
-262,379,102,7130,-84,259555
-261,358,134,7243,-97,259496
-214,343,220,7222,-55,259656
-169,334,240,7248,-28,259742
-153,363,165,7214,-62,259652
-179,385,114,7297,-89,259611
-202,358,156,7250,-139,259570
-211,314,143,7201,-195,259488
-236,266,95,7122,-171,259563
-234,258,109,7165,-80,259557
-228,290,151,7192,-163,259632
-176,325,85,7192,-159,259646
-147,362,19,7267,-183,259643
-177,363,-1,7266,-121,259595
-195,314,41,7245,-100,259572
-201,277,50,7293,-88,259584
-234,220,-16,7232,-35,259496
-213,190,67,7237,-87,259531
-219,182,138,7303,-148,259531
-199,192,106,7225,-100,259510
-164,220,17,7215,-68,259561
-199,216,36,7181,-71,259569
-191,187,106,7269,-134,259628
-217,150,87,7320,-211,259657
-217,143,40,7263,-156,259602
-196,164,70,7215,-99,259585
-156,164,166,7262,-104,259655
-145,171,130,7253,-141,259596
-137,199,107,7225,-101,259505
-171,175,82,7242,-71,259630
-153,146,136,7301,-97,259775
-158,117,157,7207,-81,259610
-188,109,166,7272,-89,259588
-176,133,197,7197,-74,259582
-161,136,228,7220,-62,259611
-112,147,163,7233,-103,259686
-92,149,99,7163,-69,259614
-121,131,170,7175,-80,259566
-108,95,174,7192,-133,259638
-112,69,177,7258,-104,259559
-138,94,198,7252,-72,259646
-132,128,199,7244,-20,259672
-123,136,148,7223,-112,259652
-97,157,97,7219,-139,259585
-93,146,54,7263,-135,259496
-93,133,52,7234,-100,259461
-93,120,82,7233,-151,259468
-110,81,99,7260,-94,259580
-126,50,121,7210,-124,259692
-100,51,152,7150,-126,259528
-85,53,140,7271,-116,259575
-56,61,90,7248,-87,259700
-19,42,10,7192,-70,259662
-52,-3,30,7226,-92,259637
-44,-36,26,7204,-73,259640
-45,-46,20,7264,-144,259579
-66,-80,30,7311,-123,259614
-35,-89,104,7288,-114,259596
-37,-96,116,7285,-144,259626
0,-65,101,7285,-132,259635
10,-56,76,7207,-148,259681
-6,-93,124,7190,-61,259653
-11,-139,175,7205,-82,259609
-68,-178,146,7205,-113,259598
-76,-203,149,7219,-145,259713
-83,-194,192,7216,-177,259679
-68,-158,174,7258,-89,259633
-18,-110,106,7229,-106,259671
-1,-106,46,7247,-159,259598
0,-127,117,7206,-170,259634
-1,-131,188,7236,-242,259688
-25,-147,117,7290,-228,259654
-62,-167,91,7187,-149,259505
-48,-147,195,7223,-108,259600
-55,-135,155,7258,-191,259569
-13,-76,88,7232,-152,259625
-6,-42,86,7265,-104,259543
-44,-57,124,7254,-143,259562
-30,-82,105,7252,-190,259537
-70,-120,70,7194,-213,259536
-114,-143,94,7201,-228,259574
-102,-133,166,7225,-193,259573
-95,-104,115,7226,-124,259618
-72,-46,31,7241,-93,259640
-96,-21,19,7174,-48,259682
-96,-27,59,7196,-134,259681
-71,-30,108,7268,-139,259686
-115,-74,119,7211,-112,259564
-165,-93,127,7230,-184,259495
-139,-74,155,7254,-144,259474
-151,-37,156,7194,-94,259622
-133,17,49,7253,-60,259677
-112,24,-7,7281,-47,259624
-137,-11,51,7287,-41,259515
-137,-48,87,7254,-75,259480
-148,-72,72,7279,-92,259503
-184,-65,99,7231,-118,259584
-175,-60,167,7256,-135,259669
-146,-45,124,7282,-181,259547
-120,-17,7,7236,-178,259564
-104,29,18,7296,-181,259605
-87,47,99,7226,-168,259641
-100,8,60,7239,-154,259675
-123,-29,65,7222,-88,259629
-183,-46,194,7220,-158,259631
-172,-43,212,7231,-188,259576
-151,25,157,7157,-74,259565
-134,95,84,7166,-138,259644
-94,121,27,7186,-133,259718
-102,82,39,7287,-138,259633
-72,65,68,7261,-137,259607
-111,37,56,7249,-158,259623
-168,3,101,7181,-208,259554
-150,8,172,7199,-67,259567
-125,27,140,7224,-139,259608
-148,114,87,7277,-111,259562
-109,167,101,7277,-140,259608
-90,156,97,7213,-154,259534
-86,99,96,7234,-72,259651
-106,34,97,7310,-140,259594
-115,29,182,7240,-247,259563
-123,74,105,7221,-92,259677
-128,137,9,7262,-107,259662
-115,192,-20,7237,-144,259602
-77,218,-17,7125,-136,259577
-75,204,-6,7310,-141,259575
-77,193,25,7331,-218,259613
-94,121,74,7248,-189,259612
-116,86,177,7230,-185,259639
-59,102,264,7268,-131,259474
-69,151,200,7238,-118,259656
-63,200,94,7193,-138,259574
-41,227,75,7183,-62,259650
-59,170,62,7265,-69,259554
-61,115,62,7215,-88,259495
-94,67,117,7247,-95,259498
-139,70,200,7310,-105,259553
-114,99,168,7234,-113,259594
-81,145,48,7236,-115,259541
-64,191,-47,7314,-174,259647
-28,220,-64,7255,-125,259695
-34,226,-73,7256,-142,259695
-54,189,-71,7178,-79,259536
-86,150,60,7182,-152,259653
-126,138,247,7213,-93,259614
-91,170,287,7235,-140,259552
-67,253,205,7219,-131,259520
-62,303,78,7262,-150,259658
-48,365,73,7210,-134,259573
-34,368,8,7266,-185,259565
-28,312,-63,7242,-171,259623
-86,261,32,7268,-157,259608
-99,272,163,7208,-238,259610
-91,313,137,7227,-130,259543
-116,327,63,7210,-147,259544
-100,363,101,7213,-108,259653
-67,399,84,7253,-106,259668
-52,419,-15,7293,-108,259581
-40,387,-5,7247,-124,259641
-69,323,150,7245,-55,259592
-93,247,208,7207,-100,259556
-53,286,244,7181,-78,259663
-64,319,272,7218,-22,259507
-45,343,200,7251,-145,259656
-7,411,184,7289,-142,259613
-13,427,123,7172,-173,259526
-2,373,66,7237,-84,259567
-16,308,149,7286,-123,259592
-22,272,258,7237,-102,259600
-19,282,212,7200,-58,259675
-50,320,115,7294,-107,259625
-90,379,156,7233,-106,259615
-33,426,147,7181,-87,259574
0,439,78,7279,-130,259604
-36,437,57,7238,-139,259575
-38,362,203,7257,-119,259585
-57,229,292,7283,-90,259586
-65,212,238,7228,-112,259627
-113,320,61,7281,-136,259566
-12,406,-49,7232,-110,259669
-26,473,-47,7277,-71,259743
-138,508,-195,7228,-154,259620
64,473,-233,7179,-139,259545
0,332,-69,7314,-84,259604
-172,351,156,7252,-161,259665
48,444,116,7202,-143,259621
-1,362,-41,7266,-116,259611
-264,360,234,7307,-52,259663
120,509,395,7229,-126,259628
0,421,40,7224,-113,259503
-166,280,181,7223,-133,259537
123,432,683,7183,-149,259651
-89,359,241,7287,-92,259697
-232,267,-194,7220,-156,259579
-113,478,354,7179,-137,259584
-139,345,43,7292,-172,259601
-117,340,-492,7263,-136,259582
-57,686,59,7186,-119,259427
-149,541,-4,7206,26,259619
-198,318,-271,7133,-124,259666
-108,382,243,7203,-161,259619
-221,386,338,7272,-111,259701
-148,283,-269,7209,-123,259654
5,376,136,7320,-179,259613
-210,422,424,7244,-125,259636
-113,350,-145,7196,-156,259631
-122,329,-78,7283,-210,259503
-267,271,419,7254,-126,259641
-186,127,166,7190,-98,259672
-113,171,-185,7169,-91,259603
-109,361,248,7299,-156,259575
-206,379,210,7196,-86,259683
-55,348,-113,7205,-96,259542
-144,374,-24,7211,-87,259538
-182,386,151,7208,-150,259544
-197,210,65,7231,-103,259507
-157,171,7,7226,-173,259540
-157,232,279,7320,-164,259597
-302,120,83,7290,-149,259606
-75,230,82,7214,-94,259567
-200,266,168,7283,-141,259595
-245,298,116,7166,-150,259706
-113,282,19,7184,-113,259667
-188,232,264,7175,-85,259527
-258,187,435,7218,-120,259559
-183,125,304,7225,-128,259568
-190,193,274,7267,-133,259575
-254,250,316,7248,-108,259662
-151,274,161,7230,-106,259674
-177,208,-69,7255,-138,259543
-219,218,60,7198,-109,259487
-247,235,229,7209,-56,259602
-242,144,93,7288,-142,259619
-228,103,144,7248,-160,259533
-279,91,397,7286,-85,259558
-237,60,292,7161,-49,259650
-203,82,50,7195,-15,259648
-191,115,163,7163,-76,259548
-207,83,105,7211,-67,259672
-196,30,-7,7283,-83,259518
-219,50,53,7252,-72,259589
-226,8,39,7194,-112,259614
-252,-67,-98,7243,-118,259552
-206,10,4,7245,-141,259614
-214,87,-9,7250,-90,259611
-206,88,-221,7185,-70,259595
-195,90,-139,7201,-102,259527
-224,46,102,7237,-142,259625
-168,-23,84,7175,-181,259621
-148,-75,29,7258,-165,259534
-160,-33,195,7234,-120,259583
-137,1,130,7160,-133,259680
-79,86,2,7226,-135,259532
-128,140,30,7243,-137,259534
-117,97,101,7215,-48,259636
-75,25,94,7263,-119,259589
-79,14,150,7276,-129,259563
-66,29,203,7265,-117,259560
-60,-14,158,7279,-130,259685
-12,37,270,7248,-140,259559
16,103,210,7312,-85,259586
12,85,26,7245,-103,259621
2,56,92,7295,-69,259516
19,-33,193,7216,-151,259544
-8,-85,183,7215,-176,259556
10,-107,179,7220,-151,259554
16,-94,323,7188,-135,259571
54,-67,288,7225,-171,259599
50,-50,163,7199,-77,259555
44,-5,60,7183,-92,259613
27,12,88,7268,-120,259487
-7,-31,98,7323,-139,259618
9,-24,95,7313,-126,259631
-32,-55,56,7279,-120,259533
-52,-35,69,7187,-90,259547
-15,-18,12,7246,-143,259688
12,15,-125,7206,-150,259773
5,4,-185,7190,-81,259577
21,-42,-107,7202,-17,259549
11,-84,-22,7215,-54,259579
-16,-111,21,7232,-85,259596
-16,-138,68,7262,-141,259737
-48,-143,159,7223,-104,259620
-30,-107,142,7284,-124,259641
-17,-58,6,7237,-72,259622
-44,-9,-42,7226,-106,259609
-58,31,10,7191,-90,259621
-66,25,13,7188,-123,259574
-70,-18,24,7185,-120,259511
-77,-65,85,7157,-96,259551
-95,-65,224,7228,-94,259573
-33,-51,171,7231,-72,259483
-33,-26,90,7258,-143,259638
-58,-24,81,7207,-215,259605
-70,-29,117,7181,-169,259577
-50,-47,135,7188,-120,259565
-42,-55,88,7334,-141,259584
-36,-79,132,7278,-140,259589
-47,-70,191,7197,-95,259518
-5,-37,185,7214,-48,259589
4,28,108,7259,-154,259639
-16,50,113,7255,-117,259628
3,28,143,7219,-113,259600
1,10,167,7259,-228,259678
-26,-13,199,7304,-132,259506
-27,-29,251,7235,-164,259525
-13,-41,291,7250,-130,259585
28,-21,297,7250,-100,259565
36,-3,196,7287,-141,259648
27,-16,151,7258,-107,259597
40,-27,168,7152,-138,259634
22,-54,184,7261,-108,259635
8,-101,97,7235,-124,259558
23,-120,139,7229,-153,259593
27,-131,190,7172,-128,259607
0,-64,121,7247,-190,259645
33,-45,1,7237,-113,259619
-13,-42,5,7229,-128,259667
-7,-71,8,7277,-133,259647
-26,-75,-8,7272,-76,259645
-81,-47,28,7256,-124,259643
-82,-53,62,7184,-97,259592
-66,-45,98,7193,-67,259586
-41,5,80,7265,-124,259574
-52,38,-58,7291,-127,259627
-59,79,-96,7214,-73,259587
-47,91,-56,7169,-140,259542
-77,72,-87,7188,-24,259598
-111,43,-91,7226,-128,259612
-138,40,46,7223,-206,259592
-146,72,97,7141,-166,259550
-128,112,61,7206,-67,259622
-129,173,-17,7199,-87,259591
-168,190,-26,7199,-60,259604
-155,210,-45,7245,-56,259674
-174,237,-13,7240,-154,259533
-201,229,-26,7215,-129,259573
-218,212,81,7210,-79,259604
-247,176,190,7261,-71,259525
-223,196,199,7271,-83,259500
-242,218,141,7258,-76,259548
-263,213,161,7234,-140,259739
-265,211,145,7194,-107,259677
-301,208,120,7226,-45,259639
-311,206,135,7215,-103,259590
-297,225,263,7206,-91,259563
-301,223,334,7262,-149,259602
-253,261,351,7221,-141,259615
-241,289,334,7179,-101,259676
-254,296,319,7234,-114,259645
-232,301,284,7233,-165,259635
-248,300,207,7219,-89,259583
-276,295,198,7229,-114,259546
-263,296,270,7205,-64,259642
-245,270,249,7256,-63,259621
-229,285,116,7235,-78,259603
-186,323,64,7175,-142,259628
-198,334,90,7284,-54,259591
-181,323,1,7198,-114,259556
-198,340,-54,7255,-112,259431
-254,388,19,7270,-158,259570
-221,410,90,7225,-139,259637
-194,401,131,7167,-132,259642
-130,419,130,7211,-135,259559
-124,424,105,7226,-140,259640
-121,419,112,7171,-141,259667
-98,409,122,7267,-136,259596
-144,371,27,7361,-152,259649
-174,330,39,7263,-96,259667
-182,322,64,7182,-121,259520
-131,359,49,7243,-131,259502
-117,388,-33,7259,-127,259618
-107,381,-91,7258,-169,259659
-70,369,13,7235,-152,259637
-84,354,29,7250,-105,259626
-104,343,26,7266,-120,259643
-134,325,121,7237,-104,259517
-142,305,209,7265,-110,259626
-116,300,202,7247,-141,259605
-92,308,168,7213,-152,259565
-70,326,199,7266,-118,259530
-61,298,137,7226,-167,259637
-73,286,112,7229,-172,259623
-124,257,67,7244,-133,259582
-154,265,157,7227,-126,259603
-128,287,215,7205,-148,259646
-112,304,199,7225,-128,259672
-110,322,107,7272,-136,259668
-128,327,74,7274,-124,259492
-106,334,92,7321,-144,259526
-152,323,9,7254,-124,259579
-180,313,-39,7183,-173,259580
-203,317,43,7177,-107,259573
-181,343,112,7187,-65,259538
-151,329,82,7216,-128,259756
-139,316,45,7229,-109,259636
-139,316,73,7308,-139,259685
-122,320,83,7196,-171,259554
-94,322,77,7211,-149,259541
-128,327,82,7269,-134,259607
-145,306,149,7313,-115,259654
-117,329,251,7248,-115,259530
-78,378,241,7236,-131,259621
-68,352,171,7242,-137,259560
-55,354,252,7250,-85,259610
-18,337,247,7202,-65,259690
-8,332,129,7287,-93,259618
-51,319,88,7253,-128,259560
-70,303,158,7215,-220,259519
-43,300,165,7161,-198,259587
-34,308,194,7228,-109,259536
-16,305,171,7291,-94,259514
9,293,219,7238,-64,259558
18,287,255,7261,-106,259576
8,267,122,7243,-156,259590
-27,245,46,7219,-85,259577
-38,261,91,7250,-102,259583
-11,276,78,7268,-86,259619
9,291,-28,7237,-107,259637
35,310,-71,7184,-94,259659
23,292,-32,7265,-134,259573
42,278,-67,7292,-98,259575
30,269,-87,7213,-81,259638
-33,241,-69,7266,-76,259629
-63,239,34,7194,-139,259663
-36,244,88,7232,-110,259586
-22,271,118,7291,-124,259598
-17,264,21,7209,-60,259497
9,252,28,7255,-83,259493
2,247,58,7216,-59,259576
-20,211,-37,7182,-112,259561
-81,156,-34,7241,-81,259536
-98,128,41,7144,-102,259646
-110,131,69,7185,-161,259626
-121,162,8,7258,-143,259659
-96,219,39,7296,-42,259576
-83,244,21,7233,-95,259578
-53,227,-52,7170,-164,259590
-91,205,-95,7172,-97,259475
-159,161,-63,7241,-125,259542
-183,167,70,7206,-144,259654
-170,176,108,7172,-119,259649
-177,175,149,7234,-114,259622
-166,164,279,7240,-111,259546
-134,147,351,7221,-47,259643
-113,149,342,7263,-89,259662
-127,133,288,7285,-131,259591
-184,88,284,7227,-97,259540
-204,79,294,7214,-151,259634
-205,106,301,7259,-158,259745
-205,121,195,7172,-113,259601
-183,124,140,7220,-58,259662
-175,83,124,7282,-32,259632
-142,64,89,7308,-137,259616
-152,29,30,7242,-189,259574
-189,0,77,7221,-152,259598
-189,-36,199,7245,-140,259653
-156,-37,248,7273,-168,259549
-150,-29,299,7207,-108,259646
-129,-1,350,7209,-106,259670
-84,21,340,7195,-136,259726
-65,30,214,7288,-166,259479
-48,38,74,7275,-37,259615
-97,19,2,7200,-40,259621
-88,5,-44,7219,-96,259626
-47,13,-100,7287,-141,259661
-56,24,-171,7322,-125,259591
-46,64,-127,7220,-96,259443
8,61,-61,7231,-165,259558
20,56,5,7185,-95,259632
18,21,34,7198,-132,259625
-17,-27,144,7226,-95,259587
6,-11,270,7237,-91,259721
28,15,161,7235,-104,259621
-3,52,49,7256,-152,259694
42,104,50,7242,-112,259524
33,106,-10,7249,-79,259559
61,52,-162,7269,-34,259551
53,1,-174,7213,-62,259559
14,-76,-92,7196,-87,259521
16,-112,-4,7192,-182,259592
21,-59,28,7166,-122,259640
18,-26,73,7201,-43,259598
42,-13,114,7270,-69,259565
65,-44,98,7245,-102,259563
57,-67,63,7225,-165,259564
19,-111,-5,7191,-157,259598
-33,-168,14,7095,-176,259548
-31,-187,22,7240,-118,259527
-32,-171,-2,7207,-75,259617
-43,-138,-12,7263,-88,259655
-30,-57,62,7309,-104,259684
-13,-28,23,7222,-81,259572
9,-24,-16,7235,-85,259607
-24,-82,15,7268,-75,259607
-64,-122,162,7280,-152,259678
-57,-76,226,7261,-155,259596
-75,-8,218,7314,-108,259606
-92,41,304,7267,-94,259580
-75,63,382,7195,-94,259717
-42,58,286,7247,-166,259625
-41,51,194,7214,-155,259552
-84,-21,186,7242,-149,259639
-93,-83,232,7227,-147,259678
-90,-90,195,7255,-183,259618
-120,-55,197,7230,-150,259512
-152,-23,190,7258,-107,259632
-82,0,283,7218,-87,259600
-76,19,259,7249,-149,259557
-71,5,178,7170,-95,259583
-74,-20,177,7170,-130,259703
-81,-30,239,7225,-131,259661
-89,-18,153,7198,-127,259617
-97,6,85,7194,-104,259609
-120,33,180,7196,-50,259666
-93,69,185,7243,-72,259619
-20,116,86,7231,-117,259485
-78,162,93,7288,-108,259480
-57,107,67,7261,-101,259613
-72,66,47,7201,-163,259717
-82,81,-7,7151,-185,259675
-114,87,-138,7267,-106,259679
-124,84,-138,7283,-35,259577
-92,94,-63,7229,-129,259669
-56,117,-119,7218,-123,259772
-34,119,-166,7288,-50,259645
-86,82,-69,7233,-81,259650
-106,54,60,7240,-111,259652
-88,48,54,7275,-129,259681
-143,81,68,7185,-69,259637
-178,124,147,7174,-108,259590
-129,193,158,7259,-80,259599
-98,252,61,7295,-147,259577
-100,265,15,7273,-123,259485
-109,198,46,7240,-128,259574
-136,132,122,7219,-177,259548
-163,138,144,7272,-117,259666
-189,157,97,7205,-146,259729
-228,161,201,7180,-104,259642
-210,197,244,7157,-65,259598
-203,263,174,7223,-87,259695
-194,283,103,7213,-88,259632
-208,240,163,7149,-111,259695
-196,182,246,7241,-158,259759
-238,201,278,7261,-102,259641
-288,188,235,7208,-93,259603
-299,216,261,7215,-34,259569
-291,238,230,7215,-91,259482
-274,267,106,7254,-116,259586
-255,278,-12,7223,-75,259542
-280,229,-20,7232,-37,259606
-296,192,34,7235,-118,259574
-302,155,33,7226,-147,259614
-308,137,80,7183,-128,259640
-295,149,259,7245,-124,259575
-278,173,270,7261,-105,259653
-263,217,134,7237,-133,259666
-282,233,66,7240,-101,259572
-305,192,59,7237,-93,259494
-319,141,38,7214,-75,259532
-299,149,16,7191,-153,259587
-293,161,1,7185,-166,259615
-280,195,85,7255,-58,259672
-221,253,150,7236,-120,259638
-181,309,117,7236,-138,259667
-163,341,104,7279,-146,259592
-170,312,136,7146,-149,259643
-182,271,150,7163,-185,259590
-165,281,168,7216,-113,259583
-185,289,202,7223,-76,259523
-166,344,272,7159,-56,259615
-123,410,232,7316,-47,259625
-117,454,144,7333,-85,259584
-96,451,115,7191,-71,259546
-95,403,137,7206,-131,259628
-90,372,139,7249,-97,259616
-84,337,88,7259,-79,259478
-108,320,71,7267,-192,259537
-94,329,123,7227,-128,259563
-55,370,145,7249,-92,259575
-40,388,39,7265,-112,259534
-59,372,-8,7172,-83,259653
-53,318,63,7200,-127,259567
-59,230,133,7196,-144,259626
-85,169,110,7141,-192,259646
-94,153,141,7220,-133,259679
-114,177,196,7238,-83,259669
-85,232,115,7273,-57,259691
-69,282,41,7204,-69,259630
-75,285,21,7227,-78,259652
-79,260,-9,7244,-124,259684
-88,236,8,7256,-100,259691
-72,204,19,7248,-96,259745
-78,144,48,7144,-120,259685
-121,186,163,7180,-95,259596
-101,261,181,7267,-89,259646
-96,324,38,7215,-98,259545
-73,347,-17,7176,-68,259546
-94,312,14,7217,-28,259526
-105,259,12,7259,-121,259622
-139,221,39,7307,-103,259564
-149,213,123,7228,-117,259605
-138,219,153,7169,-133,259640
-106,245,40,7256,-169,259648
-90,312,41,7226,-141,259499
-118,357,168,7207,-75,259575
-94,369,274,7278,-82,259736
-107,346,192,7204,-142,259568
-131,285,8,7316,-177,259561
-140,274,69,7240,-158,259487
-160,295,264,7234,-158,259579
-124,332,317,7263,-158,259689
-104,342,228,7242,-164,259683
-94,321,178,7259,-159,259625
-71,304,187,7230,-92,259647
-98,283,143,7281,-91,259629
-99,252,163,7297,-86,259544
-114,230,281,7246,-90,259502
-88,196,336,7199,-130,259542
-42,201,209,7191,-155,259633
-46,248,42,7214,-55,259694
-44,285,39,7279,-32,259603
-25,305,101,7306,74,259539
-46,260,58,7293,-114,259560
-77,217,32,7227,-156,259578
-84,219,104,7303,-43,259661
-67,204,125,7231,-177,259639
-12,231,102,7248,-157,259620
-9,233,36,7264,-116,259633
-17,224,33,7310,-132,259580
-27,217,20,7209,-83,259588
-22,195,-1,7192,-144,259659
-30,159,30,7260,-131,259585
-59,114,85,7202,-56,259603
-27,119,51,7221,-179,259664
-8,168,-107,7230,-133,259555
-20,201,-127,7172,-103,259543
-28,217,-81,7212,-35,259647
-35,194,-58,7221,-95,259636
-64,150,-29,7270,-123,259544
-79,93,37,7299,-69,259568
-88,57,125,7222,-101,259636
-61,74,183,7217,-174,259658
-30,128,163,7231,-107,259618
-16,143,72,7251,-115,259581
-54,177,160,7234,-77,259579
-58,144,84,7230,-114,259684
-74,140,-58,7216,-72,259563
-110,106,-58,7313,-66,259562
-123,43,71,7232,-102,259547
-110,4,124,7197,-136,259584
-46,17,154,7209,-128,259610
-76,40,185,7286,-48,259598
-59,46,170,7263,-69,259656
-72,37,189,7321,-76,259635
-119,51,201,7247,-101,259508
-139,19,223,7237,-62,259633
-137,-23,262,7185,-99,259685
-116,-44,301,7182,-122,259753
-97,-38,168,7285,-115,259659
-86,-5,75,7192,-151,259523
-92,4,41,7212,-149,259540
-106,-39,-41,7257,-120,259605
-141,-87,-40,7172,-122,259547
-132,-103,88,7308,-158,259591
-142,-113,171,7256,-112,259651
-83,-80,221,7218,-27,259559
-66,-35,228,7360,-115,259611
-52,-23,196,7270,-86,259646
-32,30,140,7219,-127,259632
-72,76,0,7315,-124,259582
-82,94,-119,7228,-135,259525
-91,114,-69,7275,-166,259632
-100,85,-4,7232,-133,259633
-72,68,-4,7190,-131,259671
-37,94,-14,7261,-134,259609
-49,133,59,7201,-112,259658
-19,178,95,7172,-112,259588
27,158,120,7247,-123,259434
-9,108,190,7266,-124,259496
-8,77,270,7246,-165,259577
4,36,266,7272,-191,259668
45,54,246,7278,-127,259570
72,58,177,7255,-110,259540
74,53,119,7190,-79,259587
91,79,51,7198,-105,259573
70,80,-83,7154,-116,259602
53,82,-168,7198,-159,259602
28,64,-58,7199,-92,259525
48,46,68,7259,-31,259621
68,32,147,7261,-89,259508
97,18,59,7204,-161,259528
120,54,72,7192,-185,259615
122,56,82,7191,-108,259722
137,27,24,7194,-94,259639
42,6,24,7242,-93,259596
45,-7,101,7211,-149,259536
37,1,134,7234,-197,259620
72,9,90,7252,-111,259589
109,31,98,7314,-97,259611
120,42,122,7251,-132,259571
133,54,123,7326,-147,259580
107,63,30,7250,-94,259500
62,90,9,7262,-127,259557
28,121,70,7225,-96,259643
29,115,69,7241,-48,259579
47,119,44,7263,-130,259652
35,136,-6,7304,-131,259627
14,166,-1,7273,-66,259718
9,155,-15,7192,-160,259628
-27,126,-28,7263,-202,259593
-76,89,15,7273,-106,259658
-81,76,170,7268,-73,259661
-85,66,265,7195,-110,259653
-73,57,265,7195,-104,259520
-64,43,212,7190,-73,259540
-57,24,218,7256,-115,259667
-44,37,163,7217,-134,259599
-67,51,30,7227,-169,259578
-109,58,-41,7166,-146,259624
-189,103,128,7148,-122,259594
-150,88,178,7244,-126,259510
-128,97,171,7196,-121,259648
-129,87,183,7242,-132,259540
-138,91,222,7223,-105,259559
-138,116,181,7243,-163,259557
-200,120,70,7213,-154,259534
-267,126,54,7247,-134,259522
-279,127,117,7257,-101,259589
-267,111,142,7222,-117,259597
-260,120,156,7216,-130,259586
-253,99,102,7224,-121,259610
-223,112,144,7221,-186,259630
-201,124,102,7178,-125,259604
-231,121,-46,7231,-39,259659
-265,160,-37,7303,-58,259548
-291,187,42,7223,-107,259559
-270,187,80,7179,-139,259529
-246,194,142,7186,-99,259589
-243,183,181,7159,-65,259592
-223,193,183,7267,-103,259691
-183,228,149,7222,-136,259636
-238,206,41,7324,-100,259609
-282,163,43,7243,-135,259627
-290,123,130,7225,-169,259607
-290,113,160,7340,-110,259616
-258,130,118,7260,-162,259590
-263,148,134,7265,-160,259504
-244,169,180,7232,-170,259553
-225,188,141,7248,-195,259565
-241,198,60,7297,-105,259552
-294,215,113,7294,-138,259602
-306,228,145,7217,-145,259744
-300,269,150,7300,-144,259738
-293,297,171,7235,-95,259637
-289,275,202,7162,-44,259629
-264,264,234,7212,-95,259571
-248,272,152,7303,-113,259577
-297,259,32,7261,-126,259598
-322,236,77,7286,-80,259589
-314,224,141,7332,-142,259555
-304,245,93,7205,-134,259613
-292,264,125,7202,-145,259567
-286,246,177,7266,-52,259619
-242,221,157,7257,-136,259592
-214,241,92,7250,-172,259645
-289,257,13,7214,-133,259552
-330,281,75,7200,-75,259645
-308,308,164,7245,-47,259613
-292,345,186,7262,-99,259540
-268,368,176,7237,-143,259621
-249,366,234,7188,-132,259627
-208,337,234,7196,-103,259615
-183,306,110,7240,-129,259576
-214,248,46,7207,-129,259617
-256,209,57,7142,-174,259654
-264,229,75,7187,-163,259587
-257,271,69,7255,-163,259643
-240,305,125,7222,-81,259554
-226,298,212,7215,-115,259587
-164,294,214,7182,-165,259667
-135,297,127,7219,-122,259572
-177,312,75,7225,-127,259613
-191,340,80,7188,-76,259619
-179,362,75,7171,-99,259612
-181,386,120,7273,-86,259587
-153,388,221,7109,-100,259623
-95,370,267,7178,-128,259610
-35,328,249,7247,-76,259643
-24,310,191,7270,-114,259668
-41,280,166,7269,-149,259567
-89,240,143,7249,-53,259594
-58,247,99,7297,-111,259554
-70,271,62,7230,-135,259571
-78,281,40,7168,-124,259583
-30,289,103,7212,-93,259622
-6,293,92,7251,-129,259611
31,288,-26,7284,-88,259642
-15,266,-72,7334,-138,259539
-33,244,18,7304,-89,259583
-28,211,12,7267,-121,259529
-54,206,8,7240,-69,259615
-48,238,83,7175,-89,259540
-28,264,94,7218,-219,259600
9,249,-4,7259,-166,259605
32,216,-48,7249,-140,259659
23,180,-64,7221,-98,259606
12,181,-39,7253,-96,259635
16,199,-20,7229,-93,259698
7,216,62,7259,-148,259646
-27,215,158,7213,-132,259626
-6,250,260,7198,-177,259595
-9,260,264,7150,-129,259534
-9,254,174,7224,-130,259678
-21,251,167,7198,-130,259591
-61,261,209,7143,-91,259571
-71,266,175,7139,-131,259506
-90,254,160,7230,-99,259438
-104,240,250,7237,-164,259618
-93,181,254,7258,-119,259680
-61,149,204,7208,-114,259731
-29,130,126,7222,-78,259672
-58,93,70,7195,-112,259592
-88,94,56,7241,-145,259561
-105,74,62,7214,-76,259534
-145,74,59,7250,-113,259532
-155,96,152,7200,-107,259501
-148,106,237,7265,-71,259563
-106,89,175,7360,-134,259554
-76,50,100,7312,-146,259469
-110,24,63,7257,-147,259627
-130,25,12,7242,-129,259648
-137,64,-28,7224,-71,259655
-148,84,-74,7233,-113,259628
-125,96,-11,7298,-181,259526
-80,104,72,7311,-117,259612
-51,88,34,7269,-61,259616
-40,75,9,7312,-111,259618
-67,74,52,7290,-59,259550
-86,72,84,7291,-104,259626
-72,94,106,7259,-112,259708
-95,119,166,7260,-151,259710
-71,153,204,7207,-108,259511
-50,189,219,7343,-117,259509
-25,177,161,7276,-137,259636
8,105,59,7258,-72,259644
-43,38,37,7202,-103,259640
-57,16,39,7175,-173,259581
-37,28,-5,7197,-115,259528
-31,19,68,7177,-82,259567
-24,36,138,7254,-114,259608
8,61,119,7219,-107,259640
34,84,60,7237,-143,259564
24,55,-24,7230,-69,259596
16,28,-23,7236,-122,259578
14,25,1,7272,-124,259617
-12,21,4,7195,-169,259609
-49,32,83,7127,-138,259642
-47,74,215,7171,-83,259733
-26,97,212,7293,-85,259658
-5,96,130,7312,-157,259614
-5,88,123,7258,-140,259637
-26,64,92,7245,-63,259688
-39,59,68,7276,-135,259644
-43,63,58,7227,-121,259717
-85,56,115,7206,-104,259632
-98,63,204,7247,-91,259637
-48,112,211,7244,-102,259712
-16,147,126,7181,-121,259590
-29,112,-12,7219,-118,259602
-70,79,-28,7226,-90,259656
-89,71,-62,7261,-114,259595
-93,63,-113,7266,-113,259580
-137,64,-37,7213,-87,259658
-99,96,174,7215,-108,259605
-77,114,206,7281,-106,259640
-33,132,150,7289,-123,259684
-4,129,159,7242,-70,259620
-18,97,85,7220,-144,259639
5,78,17,7229,-152,259643
2,94,41,7155,-89,259616
-34,71,61,7209,-84,259658
-28,97,161,7213,-67,259667
-35,147,218,7242,-117,259637
-20,148,182,7247,-113,259576
39,108,170,7228,-141,259591
44,61,201,7253,-138,259566
31,51,117,7220,-85,259580
44,67,58,7210,-164,259501
-7,38,123,7210,-185,259569
15,21,210,7227,-120,259581
55,37,241,7318,-88,259649
66,46,162,7233,-62,259616
99,44,106,7199,-92,259518
84,-28,85,7235,-149,259584
96,-40,46,7291,-183,259515
98,-34,-13,7271,-175,259538
37,20,23,7207,-213,259553
62,52,110,7236,-162,259510
95,68,76,7252,-108,259692
117,59,-4,7169,-138,259550
146,54,-32,7265,-217,259651
142,33,-73,7238,-150,259600
126,19,-166,7174,-112,259605
120,24,-169,7196,-40,259586
68,21,-49,7242,-65,259604
59,15,39,7287,-70,259579
69,22,57,7256,-34,259633
93,33,72,7173,-118,259699
117,28,67,7230,-74,259564
106,24,34,7190,-139,259668
78,71,-21,7199,-200,259575
48,74,-50,7217,-119,259561
20,77,26,7207,-91,259610
15,86,91,7223,-129,259591
5,96,84,7254,-176,259663
-4,90,77,7265,-163,259789
-5,92,85,7227,-150,259677
-35,85,51,7240,-195,259663
-61,101,37,7218,-215,259648
-103,75,85,7209,-128,259550
-124,70,228,7265,-121,259547
-82,95,343,7247,-156,259616
-100,144,323,7308,-157,259591
-79,164,264,7286,-177,259555
-81,189,204,7194,-159,259532
-121,172,40,7181,-70,259601
-152,153,-93,7239,-129,259583
-200,118,-38,7219,-124,259618
-219,94,109,7244,-97,259618
-192,121,274,7214,-64,259697
-190,143,342,7267,-99,259671
-168,160,354,7244,-148,259562
-155,166,343,7180,-165,259531
-195,167,236,7229,-134,259553
-203,143,98,7217,-128,259545
-232,133,68,7221,-185,259617
-271,138,141,7282,-72,259602
-254,198,169,7264,-146,259610
-252,249,125,7196,-139,259688
-248,259,151,7271,-104,259674
-213,276,139,7267,-115,259534
-231,260,-5,7259,-101,259520
-263,245,-124,7225,-146,259508
-282,223,-47,7227,-105,259594
-285,183,67,7247,-160,259544
-267,226,113,7272,-164,259579
-258,282,159,7263,-82,259621
-253,328,181,7300,-90,259625
-238,338,171,7169,-85,259649
-265,324,92,7196,-100,259688
-290,308,10,7136,-104,259571
-328,278,30,7222,-159,259585
-353,251,169,7234,-136,259662
-316,264,268,7260,-146,259698
-310,265,243,7253,-75,259575
-287,274,265,7267,-133,259548
-261,303,226,7249,-144,259698
-296,292,88,7225,-121,259673
-336,271,-58,7193,-123,259623
-368,244,-108,7241,-128,259654
-383,216,-40,7267,-95,259628
-364,228,33,7218,-104,259496
-359,238,70,7217,-103,259585
-368,237,78,7177,-54,259602
-363,235,167,7171,-103,259554
-379,208,164,7212,-45,259539
-380,193,143,7259,-107,259631
-406,172,167,7240,-168,259637
-419,190,228,7246,-161,259680
-393,227,188,7225,-186,259707
-384,260,138,7267,-101,259598
-405,300,157,7236,-65,259665
-382,319,110,7235,-91,259669
-384,340,49,7206,-129,259534
-399,333,26,7216,-42,259585
-389,300,150,7140,-26,259529
-368,259,274,7173,-54,259627
-354,268,356,7200,-154,259613
-343,306,339,7235,-125,259635
-334,315,343,7238,-100,259616
-322,312,275,7236,-76,259669
-345,318,151,7194,-152,259669
-357,325,70,7297,-136,259675
-357,299,83,7274,-72,259712
-331,273,146,7169,-47,259585
-266,297,204,7199,-160,259613
-263,318,177,7291,-141,259571
-223,321,166,7282,-102,259589
-176,323,176,7215,-39,259611
-208,315,112,7176,-60,259644
-202,305,77,7185,-154,259595
-203,289,184,7180,-90,259569
-201,262,281,7230,-123,259576
-143,284,263,7225,-91,259587
-142,266,148,7166,-118,259600
-112,237,72,7178,-129,259561
-81,219,1,7232,-107,259493
-120,225,-128,7194,-129,259540
-120,251,-181,7244,-85,259549
-123,272,-69,7188,-61,259571
-99,244,85,7247,-166,259659
-54,236,141,7259,-176,259592
-28,232,130,7277,-133,259492
-17,248,183,7306,-114,259500
34,272,146,7217,-105,259645
47,277,-20,7234,-116,259604
5,279,-140,7250,-167,259618
-17,275,-12,7249,-163,259591
-26,244,117,7194,-120,259669
18,249,120,7242,-91,259690
12,241,154,7238,-52,259688
19,233,274,7232,-46,259595
62,217,212,7141,-56,259485
42,226,45,7188,-51,259580
-19,232,-36,7214,-128,259613
-13,219,37,7215,-81,259545
5,207,150,7217,-101,259566
40,214,177,7226,-129,259679
62,226,153,7210,-84,259681
56,203,226,7203,-42,259636
99,186,171,7165,-109,259629
68,216,54,7258,-185,259586
12,201,-18,7257,-170,259598
-4,184,36,7236,-168,259600
18,122,81,7203,-114,259601
50,106,101,7225,-40,259623
64,112,168,7232,-76,259519
55,112,268,7193,-41,259518
62,144,150,7216,-31,259609
40,179,-32,7204,-78,259655
-3,199,-83,7232,-72,259523
6,178,-32,7208,-63,259603
29,136,-2,7221,-113,259606
37,120,14,7258,-211,259512
41,116,108,7184,-134,259558
68,124,186,7148,-78,259660
92,115,127,7162,-83,259652
78,128,63,7264,-54,259657
59,146,70,7257,-110,259634
54,120,65,7264,-75,259546
103,96,53,7187,15,259556
93,101,124,7244,-65,259536
93,92,174,7210,-124,259567
129,102,176,7229,-126,259552
148,115,66,7212,-133,259509
95,129,-38,7249,-160,259596
53,116,-58,7236,-151,259628
71,125,19,7203,-77,259597
50,139,24,7293,-169,259572
77,116,51,7287,-157,259633
71,102,199,7209,-151,259585
100,90,244,7223,-178,259582
107,131,139,7236,-109,259525
40,148,-47,7221,-122,259560
-2,153,-10,7210,-148,259553
0,144,55,7210,-86,259685
11,125,7,7230,-130,259646
10,123,29,7279,-107,259652
13,87,144,7229,-69,259604
43,70,160,7169,-200,259586
49,45,30,7268,-120,259583
1,12,-71,7268,-114,259622
-59,30,-89,7255,-179,259519
-54,20,-88,7227,-95,259707
-48,4,-10,7245,-53,259626
-36,-40,116,7182,-155,259638
-37,-96,205,7160,-141,259652
4,-136,234,7234,-163,259621
-13,-129,168,7253,-126,259503
-44,-111,60,7286,-134,259550
-67,-73,16,7240,-99,259597
-93,-51,21,7234,-75,259588
-87,-37,64,7281,-94,259561
-69,-62,97,7227,-163,259636
-54,-86,207,7253,-160,259728
-34,-81,281,7271,-112,259597
-34,-78,154,7248,-115,259631
-85,-50,40,7212,-96,259582
-107,-29,-34,7204,-66,259608
-114,-24,-22,7206,-76,259609
-110,-49,-37,7171,-112,259501
-84,-62,55,7151,-121,259577
-83,-80,221,7245,-59,259638
-49,-64,254,7165,-78,259693
-24,-51,151,7153,-68,259625
-91,-38,65,7194,-176,259591
-118,-30,56,7177,-154,259525
-102,11,-5,7220,-105,259524
-90,46,-22,7209,-164,259610
-83,25,88,7220,-146,259519
-34,-22,255,7223,-104,259561
16,-48,370,7237,-129,259608
26,-15,290,7309,-125,259620
-13,43,206,7266,-138,259575
-34,83,130,7186,-107,259602
-35,103,-1,7243,-132,259583
-33,103,-10,7330,-103,259634
-1,80,26,7235,-175,259630
-2,52,90,7224,-145,259661
62,9,70,7264,-111,259611
86,29,-5,7262,-115,259575
34,30,-109,7288,-101,259573
15,81,-96,7231,-145,259653
-36,108,-98,7229,-135,259570
-44,105,-111,7222,-72,259524
-50,102,4,7232,-100,259550
-41,70,185,7193,-126,259540
23,80,215,7140,-133,259532
33,91,119,7181,-144,259687
12,111,92,7246,-101,259701
-24,136,98,7253,-102,259589
-15,131,17,7235,-88,259551
-27,161,29,7266,-114,259523
-63,150,107,7249,-136,259678
-40,118,174,7272,-144,259638
-15,90,203,7220,-96,259535
-29,75,162,7286,-119,259651
-117,99,115,7262,-121,259546
-130,126,78,7295,-122,259598
-125,138,80,7283,-54,259623
-163,146,104,7227,-102,259699
-145,157,222,7195,-88,259649
-135,146,313,7233,-119,259654
-121,133,294,7309,-155,259573
-109,115,224,7208,-134,259568
-163,84,159,7194,-145,259571
-194,90,106,7182,-122,259526
-228,105,25,7180,-200,259577
-237,127,37,7213,-118,259637
-219,151,129,7256,-91,259684
-198,151,234,7205,-112,259550
-167,138,206,7257,-132,259593
-158,151,106,7211,-152,259598
-203,153,30,7156,-99,259556
-224,174,-24,7231,-92,259651
-224,157,-99,7213,-115,259570
-250,153,-47,7234,-123,259566
-254,168,115,7243,-98,259623
-198,154,164,7107,-83,259620
-158,149,144,7293,-73,259625
-173,163,104,7303,-112,259607
-217,169,95,7226,-148,259563
-237,202,6,7214,-155,259564
-235,249,-18,7245,-107,259630
-263,268,40,7293,-124,259602
-214,280,190,7255,-76,259592
-184,254,278,7274,-103,259694
-148,272,280,7266,-107,259632
-156,291,213,7205,-65,259675
-206,298,176,7204,-132,259624
-254,339,157,7200,-124,259634
-240,334,80,7214,-82,259625
-268,315,84,7200,-151,259615
-254,325,207,7200,-126,259592
-217,317,241,7243,-75,259734
-206,318,180,7288,-109,259714
-211,321,143,7189,-160,259669
-248,316,128,7213,-105,259609
-277,310,-5,7198,-112,259584
-281,334,-44,7246,-59,259586
-319,346,24,7264,12,259666
-304,337,150,7229,-96,259700
-280,327,181,7283,-196,259588
-228,326,184,7243,-211,259609
-236,298,177,7210,-187,259619
-277,288,169,7253,-182,259566
-291,298,143,7265,-145,259630
-317,318,72,7244,-131,259575
-356,334,137,7191,-140,259585
-357,362,241,7244,-100,259617
-343,345,264,7209,-154,259675
-312,307,207,7208,-169,259552
-332,276,174,7274,-69,259559
-362,252,150,7308,-102,259659
-360,266,64,7295,-98,259655
-369,272,4,7218,-48,259528
-431,291,95,7169,-106,259558
-390,294,194,7196,-77,259604
-350,281,231,7215,-150,259645
-327,259,212,7275,-127,259540
-331,204,139,7216,-57,259528
-352,201,81,7198,-56,259525
-358,247,-26,7232,-64,259575
-383,254,-91,7236,-134,259715
-372,245,-16,7242,-107,259528
-348,248,101,7215,-149,259484
-304,251,166,7205,-127,259536
-253,249,190,7173,-52,259589
-267,201,222,7223,-95,259580
-285,161,212,7206,-158,259499
-284,161,159,7218,-80,259542
-301,136,90,7271,-141,259658
-287,141,154,7191,-154,259593
-255,169,197,7203,-140,259666
-206,201,150,7210,-102,259655
-160,198,80,7217,-88,259542
-167,177,74,7259,-112,259556
-192,160,69,7227,-102,259582
-202,180,-10,7247,-27,259542
-215,192,10,7269,-99,259603
-195,196,186,7246,-60,259572
-149,201,339,7193,-93,259713
-90,211,349,7169,-151,259702
-25,203,340,7205,-118,259566
-30,171,329,7215,-66,259524
-34,156,244,7276,-140,259668
-31,165,122,7227,-132,259725
-86,144,33,7228,-142,259596
-94,159,114,7263,-85,259514
-36,179,164,7201,-149,259589
20,192,106,7269,-66,259539
62,197,21,7228,-44,259626
67,191,-24,7250,-130,259588
57,167,-145,7254,-31,259726
46,171,-204,7241,-86,259601
7,182,-191,7180,-122,259646
-14,180,-90,7106,-109,259686
22,211,36,7186,-157,259608
60,253,125,7255,-94,259547
87,230,102,7219,-95,259584
95,200,127,7265,-126,259538
73,170,90,7239,-51,259617
85,165,-22,7192,-133,259634
53,143,-37,7161,-152,259519
51,139,128,7250,-94,259599
97,159,214,7235,-70,259624
149,180,234,7256,-125,259636
142,240,274,7261,-166,259708
180,239,240,7266,-138,259598
175,223,77,7225,-172,259601
167,225,-50,7237,-207,259615
122,182,-65,7330,-28,259537
110,144,89,7253,-126,259585
143,127,164,7206,-141,259535
163,129,157,7262,-108,259529
165,142,209,7250,-156,259676
161,110,188,7215,-139,259641
151,93,63,7218,-111,259651
125,93,-83,7294,-132,259477
95,87,-124,7308,-132,259730
98,83,-29,7264,-102,259642
128,131,67,7269,-105,259578
168,191,97,7175,-141,259655
200,224,88,7225,-92,259639
190,224,144,7187,-168,259584
174,216,90,7205,-80,259554
163,186,-66,7238,-98,259509
89,168,-67,7237,-116,259621
94,150,44,7194,-134,259574
103,144,79,7172,-66,259694
99,161,67,7194,-53,259653
100,168,94,7248,-113,259628
107,174,74,7216,-147,259682
92,163,-16,7334,-152,259693
76,160,-118,7235,-151,259521
71,173,-73,7213,-111,259592
60,179,-7,7256,-136,259631
70,218,66,7229,-84,259669
84,225,81,7101,-77,259590
78,217,104,7211,-99,259632
81,193,122,7217,-132,259670
47,181,59,7215,-96,259563
9,173,-7,7231,-124,259552
-13,148,60,7195,-115,259603
-21,132,206,7147,33,259554
-26,139,254,7190,-7,259652
-20,152,261,7221,-62,259622
-29,144,298,7227,-133,259652
-37,114,250,7237,-90,259564
-74,103,112,7222,-145,259648
-88,80,15,7201,-78,259636
-127,58,78,7190,-124,259488
-103,57,146,7094,-173,259601
-89,97,179,7243,-103,259664
-101,133,129,7205,-116,259666
-82,132,101,7234,-124,259640
-101,128,76,7222,-136,259566
-120,111,-25,7154,-186,259496
-139,100,-123,7183,-93,259566
-165,84,-34,7236,-119,259522
-157,67,120,7234,-85,259632
-157,98,208,7197,-85,259607
-136,106,236,7196,-35,259581
-139,83,271,7150,-126,259532
-144,48,197,7183,-149,259578
-162,55,78,7237,-117,259568
-171,37,-47,7234,13,259585
-196,-8,38,7225,-24,259575
-172,-29,111,7229,-107,259611
-148,0,135,7220,-175,259599
-172,12,185,7261,-181,259632
-137,22,247,7165,-79,259602
-109,3,113,7228,-140,259614
-138,6,-39,7221,-105,259594
-170,15,-140,7279,-126,259501
-181,4,-83,7270,-141,259510
-152,-16,-33,7185,-142,259636
-139,-2,38,7258,-170,259665
-156,12,90,7216,-88,259579
-122,45,208,7173,-102,259523
-88,55,143,7249,-146,259508
-104,50,-32,7156,-217,259560
-143,36,-85,7205,-190,259565
-126,40,7,7190,-69,259479
-123,41,25,7205,-121,259587
-86,58,70,7262,-163,259673
-84,50,186,7273,-124,259672
-66,36,281,7179,-170,259683
-78,56,236,7240,-116,259640
-124,81,100,7225,-177,259503
-136,82,-8,7273,-129,259548
-148,66,52,7246,-123,259639
-137,63,115,7247,-104,259573
-130,95,83,7255,-55,259475
-152,91,111,7232,-71,259562
-109,93,220,7209,-91,259612
-95,92,118,7323,-56,259573
-90,127,4,7265,-135,259566
-126,151,-47,7238,-70,259525
-123,144,19,7219,-97,259581
-98,123,45,7239,-162,259673
-98,134,148,7239,-71,259516
-106,137,244,7267,-58,259599
-84,123,283,7232,-67,259608
-87,126,202,7263,-106,259706
-96,155,71,7266,-98,259592
-130,160,36,7170,-136,259504
-144,141,119,7241,-83,259569
-129,132,159,7289,-93,259686
-109,118,177,7206,-63,259544
-150,137,297,7218,-72,259549
-130,124,347,7235,-59,259670
-109,130,214,7251,-25,259679
-141,172,36,7241,-127,259643
-168,174,-51,7145,-118,259666
-157,149,11,7198,-112,259571
-129,126,92,7239,-103,259638
-109,120,143,7200,-101,259587
-132,108,215,7178,-113,259572
-84,92,266,7224,-118,259667
-90,77,200,7195,-122,259618
-128,64,50,7228,-83,259525
-139,70,-4,7251,-74,259501
-168,55,23,7257,-93,259655
-139,41,85,7254,-145,259629
-130,28,188,7181,-137,259470
-131,15,303,7189,-112,259503
-93,23,302,7235,-101,259609
-90,49,148,7224,-116,259626
-132,100,-16,7263,-144,259524
-148,142,-98,7208,-144,259465
-160,150,-88,7231,-41,259546
-148,150,-7,7213,-78,259592
-158,144,50,7196,-117,259626
-146,140,178,7194,-70,259750
-164,182,280,7204,-128,259650
-159,179,138,7248,-148,259649
-209,209,13,7264,-153,259546
-231,257,-19,7298,-124,259577
-225,268,-83,7257,-65,259651
-203,261,-55,7261,-128,259602
-206,232,105,7167,-104,259618
-219,200,261,7146,-63,259670
-192,207,322,7205,-121,259704
-214,240,215,7255,-116,259564
-237,262,81,7256,-60,259611
-253,291,70,7252,-106,259645
-270,280,69,7228,-112,259549
-251,271,72,7161,-94,259694
-261,213,191,7097,-158,259643
-259,202,374,7138,-100,259752
-225,214,380,7198,-138,259663
-248,230,232,7208,-99,259576
-312,265,123,7227,-96,259519
-339,287,23,7242,-124,259507
-338,273,-50,7257,-191,259493
-321,251,-23,7229,-193,259652
-329,209,95,7301,-87,259559
-311,165,212,7219,-133,259613
-265,177,263,7206,-111,259683
-276,179,166,7260,-89,259722
-317,187,86,7167,-103,259603
-325,207,88,7251,-83,259559
-316,216,11,7195,-102,259524
-319,221,35,7190,-157,259522
-332,193,170,7169,-106,259636
-305,176,388,7214,-159,259543
-265,170,341,7213,-180,259752
-257,216,234,7208,-153,259593
-287,244,117,7237,-121,259543
-248,273,81,7235,-96,259506
-239,267,21,7273,-96,259552
-227,255,60,7274,-84,259542
-236,246,190,7157,-166,259620
-231,227,341,7212,-105,259548
-207,226,339,7188,-80,259612
-215,231,221,7254,-84,259645
-263,264,149,7193,-101,259636
-245,287,44,7192,-144,259683
-242,297,-58,7221,-63,259590
-227,250,-46,7219,-76,259551
-210,199,56,7194,-93,259571
-189,162,161,7173,-145,259629
-148,187,175,7213,-172,259640
-185,177,44,7223,-100,259660
-209,212,-45,7240,-120,259643
-186,253,-95,7214,-105,259671
-226,305,-103,7224,-102,259621
-168,277,-55,7250,-62,259609
-150,229,77,7205,-52,259598
-72,182,271,7221,-142,259634
-14,176,278,7168,-162,259569
-41,158,145,7188,-125,259509
-76,176,28,7249,-57,259552
-90,227,-8,7292,-53,259571
-99,201,-118,7212,-95,259554
-94,173,-80,7146,-130,259603
-97,132,151,7201,-122,259598
-58,110,251,7252,-140,259571
-15,151,191,7296,-136,259572
-43,179,117,7206,-114,259575
-60,220,56,7193,-69,259592
-60,258,-41,7200,-78,259521
-72,286,-97,7207,-85,259548
-65,305,55,7217,-73,259616
-32,240,217,7193,-103,259624
34,214,365,7194,-170,259532
75,216,410,7239,-169,259601
42,200,301,7202,-205,259625
8,237,165,7230,-84,259600
28,265,30,7270,-131,259529
48,271,-33,7253,-82,259559
28,271,-9,7186,-26,259560
68,232,190,7174,-90,259411
104,221,304,7256,-78,259630
157,180,242,7178,-176,259634
129,163,175,7178,-148,259608
105,185,107,7201,-27,259610
113,197,-93,7230,-51,259620
102,211,-235,7196,-83,259623
112,205,-160,7230,-122,259537
123,165,-3,7314,-95,259564
148,118,124,7280,-133,259588
171,97,158,7290,-126,259471
165,97,88,7243,-74,259552
129,110,49,7278,-80,259494
134,148,-91,7303,-61,259638
104,170,-133,7203,-105,259731
103,174,-41,7243,-132,259849
149,150,135,7272,-78,259535
182,105,211,7287,-161,259649
227,90,199,7301,-150,259726
193,84,141,7328,-115,259652
178,117,59,7221,-57,259600
168,154,-93,7268,-70,259615
168,172,-179,7318,-81,259674
129,166,-67,7218,-29,259560
155,105,129,7294,-74,259603
189,82,284,7298,-122,259599
210,54,271,7279,-141,259729
215,75,235,7316,-117,259705
180,120,158,7313,-143,259648
165,153,-45,7315,-104,259691
137,179,-175,7261,-38,259617
113,204,-98,7198,-82,259528
124,179,20,7233,-94,259559
120,134,140,7246,-110,259667
135,106,216,7191,-202,259595
98,75,203,7284,-116,259624
63,96,100,7221,-119,259605
46,148,-12,7332,-72,259664
28,158,-96,7298,-130,259593
20,151,-35,7271,-86,259617
37,134,122,7284,-58,259697
67,92,198,7247,-101,259648
90,50,202,7235,-102,259623
61,34,210,7212,-182,259668
36,57,141,7157,-172,259613
12,114,-44,7249,-23,259536
-25,158,-121,7273,-25,259547
-15,175,-23,7261,-100,259633
-1,151,120,7260,-88,259705
32,135,226,7291,-67,259593
30,104,254,7277,-133,259554
-3,59,270,7235,-97,259585
-35,77,211,7256,-110,259595
-32,140,29,7319,-86,259674
-87,174,-80,7310,-113,259617
-106,175,44,7235,-144,259455
-96,148,192,7233,-71,259614
-46,104,235,7265,-114,259647
-51,77,236,7300,-122,259588
-97,61,188,7300,-133,259604
-125,77,31,7248,-114,259619
-159,120,-164,7245,-88,259661
-196,128,-224,7291,-100,259616
-191,151,-99,7195,-116,259556
-146,150,20,7124,-80,259615
-138,149,124,7243,-126,259632
-108,142,179,7235,-134,259588
-106,108,167,7240,-58,259582
-124,124,64,7255,-75,259508
-142,184,-105,7265,-92,259580
-205,193,-178,7260,-67,259619
-206,177,-57,7198,-113,259547
-173,161,107,7268,-101,259665
-141,131,238,7236,-137,259635
-112,96,265,7240,-137,259665
-118,70,317,7230,-213,259662
-156,98,230,7329,-118,259604
-172,131,-29,7255,-74,259585
-206,169,-87,7197,-94,259581
-245,170,58,7231,-153,259657
-223,126,145,7231,-107,259685
-174,125,245,7232,-145,259631
-177,102,371,7262,-186,259586
-184,85,375,7232,-127,259665
-201,82,251,7243,-116,259558
-234,117,60,7293,-137,259573
-291,135,-62,7256,-108,259497
-283,130,-23,7146,-99,259578
-266,121,78,7158,-62,259624
-232,98,153,7175,-157,259616
-193,87,218,7250,-118,259665
-233,62,191,7277,-67,259697
-263,91,136,7242,-130,259648
-287,136,-43,7216,-84,259522
-333,148,-109,7265,-122,259462
-336,166,14,7220,-161,259630
-282,166,127,7261,-168,259544
-254,159,192,7249,-128,259585
-255,104,229,7201,-76,259598
-268,68,249,7258,-97,259482
-289,94,101,7205,-168,259516
-347,143,-53,7218,-91,259491
-369,151,-98,7224,-150,259503
-343,160,-11,7257,-155,259595
-319,163,62,7188,-128,259589
-294,157,167,7169,-52,259596
-301,108,291,7249,-22,259574
-304,55,294,7240,-70,259529
-314,70,197,7202,-103,259481
-353,114,105,7149,-120,259648
