Vx,Vy,Vz,Ax,Ay,Az
-28,17,-70,-1528,627,255594
44,44,97,-1570,719,255445
-145,59,179,-1507,715,255501
-71,19,350,-1529,719,255586
-114,25,454,-1479,635,255611
-205,60,229,-1491,598,255558
-116,89,95,-1525,584,255539
-169,106,-16,-1512,577,255524
-131,137,-33,-1509,654,255494
-112,114,99,-1490,672,255593
-160,55,146,-1580,604,255481
-194,55,234,-1617,621,255559
-211,9,291,-1622,614,255595
-210,9,196,-1580,690,255593
-188,85,112,-1598,708,255634
-173,31,-1,-1579,602,255549
-135,42,7,-1523,666,255560
-50,40,109,-1502,706,255644
-144,16,176,-1519,691,255657
-178,-1,267,-1527,600,255571
-102,-10,289,-1378,627,255599
-175,76,197,-1537,687,255546
-26,32,149,-1538,640,255552
-82,2,56,-1520,664,255641
18,36,24,-1552,599,255563
71,38,150,-1441,603,255560
-41,-37,224,-1512,625,255541
12,-25,325,-1603,681,255607
23,12,339,-1592,685,255626
22,4,271,-1559,603,255643
-14,54,46,-1550,649,255577
115,71,-64,-1495,642,255569
122,74,-98,-1451,613,255584
147,67,4,-1495,625,255563
108,70,51,-1519,658,255541
118,68,180,-1498,585,255533
131,58,199,-1488,661,255469
114,81,159,-1514,645,255494
109,100,26,-1520,656,255534
159,145,-85,-1532,675,255617
221,130,-61,-1532,626,255647
231,123,26,-1565,605,255625
154,106,213,-1554,645,255676
98,90,270,-1546,662,255675
160,54,388,-1540,574,255593
60,79,153,-1553,621,255599
151,106,94,-1553,655,255624
67,79,-68,-1395,602,255610
178,97,-12,-1470,625,255518
89,166,41,-1490,646,255562
53,44,208,-1523,674,255581
5,9,382,-1488,610,255663
-9,57,408,-1528,639,255715
-47,63,315,-1463,705,255609
-63,19,155,-1571,707,255530
-26,47,-50,-1531,621,255599
10,84,-109,-1536,657,255582
-26,50,-69,-1497,644,255524
-84,2,195,-1521,675,255674
-173,37,276,-1465,631,255575
-108,10,440,-1574,649,255596
-252,-16,226,-1600,610,255579
-127,-11,210,-1535,584,255492
-202,-2,28,-1499,563,255534
-85,-9,17,-1501,590,255596
-107,-34,77,-1439,611,255690
-230,-74,97,-1434,577,255656
-126,-54,353,-1528,592,255650
-221,-35,373,-1495,606,255581
-191,-71,247,-1488,593,255732
-152,-49,119,-1486,630,255654
-148,-31,-98,-1510,639,255622
-22,1,14,-1563,701,255573
-113,-23,12,-1495,683,255583
-71,-85,162,-1556,666,255679
-110,-50,270,-1548,672,255679
-44,-86,326,-1556,644,255656
-153,20,213,-1559,621,255658
-10,-10,130,-1556,621,255570
-44,28,-3,-1480,675,255586
30,123,-94,-1520,744,255607
41,58,-202,-1504,650,255568
20,107,143,-1510,638,255506
-8,32,166,-1564,517,255544
31,96,337,-1547,632,255656
-40,133,195,-1508,656,255610
95,57,147,-1596,716,255546
27,209,213,-1519,740,255594
84,138,-42,-1573,672,255483
167,158,18,-1607,721,255520
78,105,248,-1449,689,255582
-33,6,162,-1484,623,255636
110,164,557,-1632,559,255710
-80,70,244,-1443,563,255620
47,34,166,-1554,676,255614
86,185,12,-1545,627,255635
203,111,16,-1601,652,255495
6,149,-24,-1478,675,255622
114,74,424,-1495,645,255642
-90,30,250,-1488,597,255557
122,134,488,-1542,650,255502
-59,36,228,-1450,660,255628
46,15,67,-1551,593,255593
100,120,44,-1555,589,255569
-14,119,-258,-1494,579,255498
55,107,-69,-1582,690,255519
-45,110,126,-1490,658,255618
-26,34,186,-1457,641,255619
-9,64,477,-1510,664,255472
-187,40,238,-1559,604,255670
-127,44,16,-1535,618,255569
-39,128,-55,-1546,633,255566
-13,88,-151,-1558,681,255513
-103,15,-107,-1513,644,255589
11,0,322,-1545,633,255551
-274,-31,212,-1452,627,255587
-130,-17,371,-1542,618,255696
-136,-83,306,-1539,657,255595
-201,-24,16,-1540,686,255527
61,3,173,-1626,684,255639
-129,17,-120,-1489,688,255621
30,14,9,-1509,647,255590
-94,46,172,-1568,657,255578
-102,32,277,-1612,547,255667
-78,30,411,-1571,650,255635
-184,45,190,-1545,650,255583
7,15,86,-1511,603,255579
5,46,48,-1496,691,255420
1,94,-196,-1552,692,255541
64,84,-101,-1582,672,255549
41,60,48,-1547,673,255590
39,91,200,-1485,634,255753
-13,68,267,-1548,702,255646
42,49,277,-1494,667,255509
-19,90,27,-1440,632,255538
193,120,-15,-1514,665,255487
96,186,-190,-1471,681,255632
218,138,34,-1458,715,255626
59,93,104,-1539,653,255703
151,98,337,-1536,590,255676
32,83,285,-1441,626,255581
40,71,328,-1549,608,255618
35,68,192,-1508,707,255762
143,141,109,-1578,717,255708
88,171,-149,-1491,699,255578
201,78,59,-1542,673,255529
-16,96,81,-1538,593,255615
125,117,355,-1594,587,255618
-75,70,451,-1565,608,255682
-118,83,304,-1609,612,255543
42,110,198,-1514,709,255581
-19,86,80,-1399,635,255562
18,129,-7,-1523,649,255478
-13,120,181,-1512,713,255632
-81,2,339,-1530,653,255643
-108,50,569,-1581,675,255711
-221,45,519,-1533,670,255658
-205,-26,413,-1600,652,255632
-156,28,279,-1549,612,255605
-126,63,177,-1456,606,255539
-226,67,-36,-1535,545,255553
-69,43,53,-1502,577,255590
-199,13,125,-1482,659,255596
-213,63,287,-1548,656,255611
-248,41,361,-1491,697,255706
-327,-2,340,-1557,659,255649
-260,15,124,-1561,582,255566
-153,80,-45,-1530,554,255546
-181,112,-198,-1486,625,255497
-135,109,-43,-1497,729,255526
-241,80,74,-1458,717,255627
-156,114,283,-1556,644,255567
-303,101,251,-1553,600,255542
-236,26,282,-1533,607,255583
-236,39,22,-1497,625,255523
-76,135,-119,-1555,631,255560
-125,124,-226,-1558,699,255580
-119,64,-71,-1483,654,255548
-103,104,17,-1493,648,255628
-118,166,88,-1518,682,255568
-124,98,232,-1533,725,255617
-173,37,302,-1513,624,255540
-107,129,259,-1563,659,255518
-24,165,6,-1554,684,255602
14,142,-98,-1591,623,255612
62,146,-65,-1542,630,255566
49,163,183,-1558,676,255686
8,136,431,-1527,623,255657
-99,97,387,-1486,620,255650
-32,64,328,-1548,691,255598
121,59,291,-1509,663,255628
15,64,92,-1543,712,255583
173,99,47,-1542,695,255525
174,54,138,-1538,623,255633
168,34,313,-1564,642,255561
80,85,326,-1550,601,255601
109,38,469,-1546,649,255492
71,19,325,-1469,675,255570
169,44,278,-1505,669,255622
107,78,-20,-1463,724,255544
273,111,-32,-1609,717,255402
180,34,60,-1568,675,255539
88,52,74,-1571,660,255605
183,119,311,-1542,659,255554
-21,103,255,-1452,623,255751
11,72,249,-1557,666,255588
101,76,134,-1521,671,255585
55,59,-156,-1462,636,255662
88,86,-354,-1494,636,255689
204,97,-100,-1435,674,255674
16,116,-55,-1558,663,255663
149,191,180,-1606,597,255641
-41,74,197,-1532,629,255650
3,33,204,-1533,632,255690
45,77,44,-1487,656,255704
48,-24,-98,-1541,622,255605
23,41,-286,-1501,679,255557
119,50,-22,-1552,642,255586
-45,3,148,-1498,614,255568
10,43,342,-1640,650,255468
-61,-25,361,-1510,660,255611
-59,-102,390,-1542,637,255584
-40,-43,282,-1544,706,255633
-15,63,116,-1568,603,255660
9,30,19,-1560,655,255600
85,65,84,-1479,643,255682
92,106,305,-1625,642,255648
-50,89,325,-1571,633,255555
35,57,454,-1548,618,255657
-143,21,219,-1498,589,255559
82,24,300,-1586,611,255496
-39,13,146,-1453,665,255671
25,-23,113,-1529,628,255590
49,40,56,-1490,626,255628
90,19,137,-1497,627,255573
-30,54,63,-1505,650,255629
-20,-26,183,-1445,690,255633
-26,-38,251,-1454,723,255632
-12,73,161,-1537,656,255580
49,52,-12,-1537,614,255547
109,1,-115,-1563,642,255587
155,34,-59,-1529,625,255561
70,85,44,-1483,612,255702
-14,54,114,-1538,618,255572
18,-6,287,-1531,663,255675
-73,-2,249,-1525,712,255615
-16,55,194,-1533,719,255673
10,17,5,-1514,662,255721
-9,9,-215,-1539,624,255588
135,64,26,-1582,765,255623
-69,64,0,-1543,703,255623
-43,96,260,-1593,680,255579
-178,79,138,-1530,620,255648
-30,51,242,-1508,565,255592
-56,78,95,-1471,560,255515
-81,32,-45,-1531,652,255580
-8,108,-10,-1539,621,255701
47,83,54,-1459,637,255657
2,29,152,-1480,724,255634
-38,60,357,-1503,677,255714
-168,38,301,-1563,620,255589
-37,-43,585,-1552,561,255637
-239,-70,160,-1525,612,255585
-37,-9,158,-1566,607,255509
-140,-32,-35,-1349,664,255651
30,-71,183,-1514,566,255613
-132,113,289,-1525,640,255633
-175,29,258,-1519,627,255643
-101,-35,495,-1548,629,255641
-224,0,375,-1488,605,255634
-143,-111,209,-1508,726,255647
-180,-10,112,-1496,642,255650
-57,-115,6,-1463,577,255450
-84,-84,67,-1491,649,255501
-107,-36,204,-1486,683,255619
-112,-85,136,-1584,724,255604
-140,19,285,-1524,739,255651
-163,-81,298,-1508,677,255602
-290,-11,112,-1548,627,255590
-148,62,110,-1563,655,255585
-222,-125,-291,-1541,634,255551
51,-22,-78,-1522,663,255529
-139,-47,-20,-1381,696,255649
-276,33,121,-1615,743,255610
-178,49,399,-1492,666,255512
-301,-29,288,-1484,627,255539
-194,46,85,-1532,620,255593
-48,2,104,-1551,735,255588
-196,-36,-120,-1508,665,255535
17,56,0,-1539,663,255507
-143,83,154,-1447,671,255619
-178,57,165,-1538,624,255488
-106,35,399,-1537,663,255532
-177,43,299,-1582,672,255634
-143,46,160,-1495,677,255672
-118,110,189,-1581,671,255567
-119,103,-23,-1551,681,255587
8,121,41,-1587,655,255553
-9,157,119,-1507,645,255611
-131,117,184,-1560,629,255689
-43,109,431,-1642,634,255690
-128,61,385,-1581,568,255664
-70,84,244,-1604,630,255615
-29,123,128,-1563,664,255614
45,90,77,-1512,648,255520
97,146,65,-1484,615,255591
89,137,300,-1516,641,255643
-88,166,224,-1529,621,255579
110,129,493,-1502,659,255620
-119,119,356,-1567,636,255713
-9,111,191,-1485,670,255602
5,80,41,-1489,686,255620
65,92,-107,-1588,665,255636
142,90,20,-1557,658,255661
23,94,2,-1499,585,255539
102,107,226,-1507,600,255624
-44,72,252,-1536,664,255624
18,45,226,-1478,614,255556
-24,13,35,-1556,690,255555
60,19,-120,-1570,657,255528
145,-7,-174,-1597,629,255640
163,-40,-129,-1395,613,255645
127,10,-18,-1461,639,255565
45,31,81,-1598,637,255614
115,-29,285,-1561,661,255652
15,-61,237,-1488,649,255647
55,-22,86,-1510,671,255632
122,-40,46,-1446,710,255495
124,-34,-24,-1404,677,255581
207,73,-8,-1532,666,255545
129,68,-26,-1552,668,255581
169,43,179,-1470,631,255631
138,78,414,-1532,589,255643
-8,33,329,-1585,682,255662
130,-16,317,-1536,675,255507
30,-1,-10,-1527,563,255467
259,18,70,-1591,555,255342
130,33,-56,-1494,661,255459
209,70,113,-1534,612,255498
80,130,172,-1522,606,255587
153,109,394,-1546,617,255575
9,110,317,-1480,583,255607
36,82,246,-1537,635,255642
60,52,135,-1533,625,255695
91,78,50,-1450,675,255664
108,81,9,-1515,706,255512
77,102,111,-1508,646,255587
-12,124,120,-1505,614,255572
93,136,363,-1501,607,255557
-112,141,272,-1449,625,255656
-31,146,200,-1541,661,255661
-8,157,123,-1549,698,255514
35,137,17,-1568,755,255383
109,209,69,-1462,708,255464
-14,177,90,-1467,643,255571
-5,189,186,-1489,617,255685
-2,291,287,-1543,661,255600
-125,245,329,-1469,648,255594
-132,217,185,-1562,675,255545
-3,228,42,-1534,638,255581
12,245,-128,-1500,595,255578
23,196,-110,-1519,606,255564
-26,118,52,-1489,620,255579
-106,194,146,-1507,613,255625
-72,163,246,-1560,647,255645
-197,66,198,-1490,662,255565
-148,76,102,-1533,639,255529
-106,76,35,-1535,621,255537
-79,76,-26,-1573,612,255601
-16,78,-22,-1489,600,255582
-92,75,3,-1463,613,255597
-82,100,204,-1478,589,255656
-88,42,320,-1581,641,255576
-221,81,275,-1551,628,255570
-143,-3,274,-1481,586,255698
-243,-7,-62,-1406,650,255672
19,10,103,-1488,598,255583
-155,-41,-76,-1474,590,255599
-83,-21,239,-1546,663,255574
-174,6,235,-1429,581,255667
-159,39,336,-1534,644,255597
-174,-5,271,-1455,637,255586
-235,10,192,-1569,643,255623
-135,21,101,-1554,602,255617
-122,30,-4,-1528,617,255550
-83,67,9,-1513,602,255562
-174,59,147,-1585,599,255566
-148,103,259,-1586,590,255660
-101,87,480,-1525,575,255678
-293,89,213,-1573,636,255709
-97,29,386,-1634,691,255595
-272,46,34,-1517,629,255723
-4,108,214,-1505,625,255594
-163,64,26,-1508,665,255603
-64,27,192,-1532,663,255549
-92,67,286,-1564,634,255623
-161,130,313,-1576,640,255699
-129,73,410,-1634,618,255627
-204,60,290,-1503,618,255617
-119,66,154,-1493,607,255521
-16,105,96,-1463,676,255585
-70,96,33,-1560,616,255610
-40,151,148,-1486,665,255669
-78,149,242,-1541,728,255659
1,140,354,-1515,702,255736
-188,138,233,-1471,708,255709
-62,151,189,-1561,697,255506
-69,124,88,-1512,624,255603
25,183,6,-1441,596,255623
42,139,60,-1469,634,255556
-13,177,59,-1511,622,255448
99,179,257,-1514,705,255568
-9,211,298,-1449,706,255661
-66,177,176,-1617,590,255560
34,113,154,-1519,600,255534
0,57,-56,-1491,620,255621
150,88,-87,-1552,662,255564
55,43,-74,-1457,648,255546
127,-43,81,-1558,596,255522
74,37,297,-1496,624,255518
9,55,211,-1544,650,255632
66,-28,320,-1541,720,255584
-51,13,95,-1535,609,255526
175,-7,-33,-1543,627,255477
71,-17,-87,-1555,711,255522
111,-20,-269,-1551,648,255538
182,-26,166,-1568,656,255568
5,-82,76,-1505,618,255603
179,-73,234,-1570,665,255564
0,-76,210,-1489,670,255548
2,-157,98,-1555,688,255661
105,-73,180,-1518,661,255658
-7,-31,-132,-1421,651,255710
173,-95,-4,-1621,647,255523
42,-27,57,-1438,598,255533
56,-48,299,-1520,643,255629
-32,47,265,-1618,673,255583
66,-65,290,-1536,657,255546
-111,-72,56,-1505,602,255563
109,60,121,-1519,593,255603
-11,-19,199,-1431,622,255558
-42,-3,33,-1601,602,255539
195,1,233,-1474,595,255594
-53,-32,128,-1511,659,255540
103,102,192,-1582,614,255484
-17,11,489,-1539,642,255653
-86,-4,188,-1598,607,255614
152,50,392,-1597,708,255540
-133,56,-120,-1466,657,255574
192,51,110,-1551,604,255560
-26,94,57,-1510,621,255565
78,104,237,-1592,702,255404
-50,139,244,-1489,636,255631
54,95,229,-1524,595,255604
-6,72,131,-1559,573,255457
62,95,36,-1646,596,255500
110,27,-40,-1512,654,255594
60,74,-22,-1550,667,255582
189,53,27,-1518,631,255477
-5,58,141,-1570,695,255554
40,115,-50,-1516,630,255551
161,89,211,-1477,617,255580
-115,80,-97,-1489,640,255621
239,154,110,-1556,625,255528
-70,76,-196,-1417,640,255617
237,68,-31,-1501,633,255525
107,52,126,-1394,598,255551
6,67,119,-1553,663,255659
112,41,303,-1586,653,255677
-89,-24,157,-1546,615,255679
96,-44,248,-1501,490,255671
-20,-6,105,-1491,658,255598
54,-70,8,-1502,691,255485
125,2,-6,-1595,644,255522
106,-56,194,-1557,634,255612
-21,-36,142,-1537,633,255551
0,34,338,-1593,650,255511
-89,-80,194,-1420,676,255616
-26,-49,253,-1499,676,255534
-76,-14,98,-1413,622,255628
-57,-125,79,-1553,690,255652
-69,-76,93,-1541,652,255657
40,-128,256,-1451,687,255588
-261,-19,61,-1497,741,255596
65,-89,529,-1606,686,255551
-378,-116,143,-1374,564,255709
-48,-29,498,-1633,569,255552
-225,-54,33,-1547,581,255638
-110,-89,167,-1577,523,255677
-198,-75,95,-1494,550,255595
-99,-129,313,-1631,675,255681
-278,-18,337,-1567,687,255649
-180,-36,420,-1521,594,255615
-309,-120,336,-1523,681,255683
-216,17,431,-1567,634,255652
-294,15,88,-1543,676,255587
-201,38,148,-1538,708,255654
-237,9,6,-1533,657,255561
-151,16,100,-1581,682,255744
-221,125,262,-1544,644,255559
-228,21,285,-1537,602,255570
-271,117,206,-1478,630,255505
-168,176,194,-1484,644,255581
-251,95,-59,-1494,643,255569
-168,196,-74,-1589,646,255534
-137,117,-53,-1482,607,255498
-195,191,-17,-1507,662,255545
-183,169,113,-1583,628,255624
-248,160,41,-1500,644,255668
-177,127,184,-1572,714,255600
-177,148,157,-1597,620,255632
-174,203,-2,-1540,699,255692
-81,133,-56,-1471,703,255514
-57,122,165,-1487,598,255575
-118,188,96,-1508,585,255690
-28,146,328,-1546,690,255662
-126,105,133,-1440,661,255558
-14,107,182,-1444,634,255602
27,151,236,-1459,614,255663
-54,125,-25,-1488,582,255639
151,156,159,-1542,692,255623
57,81,10,-1472,675,255584
147,85,171,-1537,679,255600
79,77,263,-1525,679,255603
-10,55,228,-1562,665,255482
87,85,357,-1507,605,255596
42,48,124,-1523,591,255700
96,112,59,-1525,621,255610
170,64,-38,-1482,683,255609
182,54,160,-1519,594,255611
83,115,176,-1633,653,255614
149,30,274,-1583,628,255580
40,39,405,-1560,682,255625
12,12,259,-1520,600,255632
109,5,405,-1510,606,255611
5,54,51,-1493,562,255608
122,3,138,-1586,522,255497
69,16,91,-1504,572,255546
122,-8,217,-1532,554,255483
-16,69,267,-1554,633,255582
-56,-36,235,-1495,617,255658
24,-78,276,-1554,647,255572
-90,73,66,-1464,694,255572
-14,21,39,-1593,724,255621
-82,31,-81,-1492,643,255642
79,90,-61,-1521,641,255574
-6,143,15,-1544,706,255571
-75,160,104,-1456,624,255641
-47,77,251,-1481,642,255653
-110,163,173,-1556,607,255594
20,142,206,-1602,629,255571
-102,157,-41,-1474,698,255644
3,142,33,-1513,597,255569
-49,120,-26,-1526,573,255570
-15,192,203,-1520,581,255447
-94,88,188,-1504,653,255544
-47,127,252,-1569,635,255598
-16,146,346,-1532,592,255605
-100,136,75,-1459,701,255583
45,206,203,-1525,674,255516
-50,156,-18,-1524,649,255542
130,119,66,-1494,594,255555
76,190,195,-1459,643,255685
-73,153,95,-1570,639,255595
67,120,315,-1519,659,255638
-30,158,156,-1482,655,255642
47,103,46,-1549,683,255580
-31,154,20,-1509,636,255573
50,76,-31,-1522,632,255567
40,44,69,-1503,687,255599
-45,136,47,-1541,636,255585
51,-20,179,-1540,572,255529
-81,26,159,-1493,631,255640
66,39,307,-1573,663,255537
-116,8,42,-1455,650,255655
62,116,226,-1498,669,255560
12,106,20,-1450,607,255635
101,122,60,-1551,668,255682
136,66,233,-1543,651,255571
-63,33,147,-1485,590,255532
12,50,263,-1559,665,255577
2,-5,301,-1516,543,255585
-77,43,27,-1509,563,255606
88,36,76,-1594,644,255606
-12,9,-35,-1557,646,255492
71,48,64,-1509,638,255517
-48,91,141,-1444,662,255567
-96,14,185,-1528,636,255658
-74,4,213,-1547,560,255734
-22,50,236,-1531,607,255660
-108,-11,19,-1535,594,255570
-45,64,48,-1572,638,255590
-28,68,7,-1514,657,255595
-36,48,94,-1490,726,255602
-52,79,275,-1561,657,255508
-140,52,257,-1532,657,255577
-51,17,436,-1615,675,255511
-125,25,337,-1550,615,255542
-123,79,232,-1551,624,255514
-66,82,201,-1467,615,255464
-81,99,85,-1517,711,255436
3,170,164,-1559,717,255491
-42,110,251,-1458,639,255532
-92,138,237,-1446,607,255622
-19,154,330,-1521,648,255542
-110,148,202,-1512,620,255628
-46,159,174,-1506,609,255611
-74,124,93,-1505,625,255617
-47,159,54,-1576,573,255572
51,153,57,-1561,621,255527
-47,131,78,-1547,610,255514
-133,124,37,-1553,672,255536
5,70,157,-1537,681,255590
-55,90,141,-1461,621,255585
-71,106,24,-1558,637,255627
-9,72,30,-1518,677,255591
50,78,-10,-1461,682,255581
46,170,-51,-1527,702,255578
24,114,112,-1612,739,255655
-78,54,179,-1546,598,255670
54,79,296,-1598,674,255621
-81,68,169,-1490,678,255638
-14,8,117,-1487,625,255610
45,56,148,-1566,602,255603
-3,51,53,-1497,619,255590
63,11,174,-1566,644,255609
16,-8,181,-1595,629,255569
-38,-31,266,-1558,654,255534
-32,-3,220,-1517,645,255606
15,-59,219,-1449,609,255642
-57,-44,59,-1497,574,255554
65,37,40,-1593,640,255605
33,-31,29,-1507,648,255652
73,-31,82,-1546,658,255614
52,-29,179,-1555,658,255497
-50,-39,268,-1512,675,255576
11,-99,380,-1563,651,255583
-33,-82,316,-1536,638,255578
-60,-27,135,-1485,615,255592
23,-43,113,-1497,653,255534
3,-27,134,-1508,669,255559
-2,26,181,-1535,714,255622
-54,-6,214,-1593,702,255614
12,-65,263,-1635,611,255613
-32,-34,276,-1581,598,255674
-20,-45,220,-1538,649,255599
-63,-104,104,-1483,628,255529
-10,10,6,-1503,662,255544
26,71,6,-1505,676,255645
-19,37,-1,-1611,686,255645
20,46,49,-1547,705,255606
19,49,143,-1499,658,255599
5,1,185,-1520,600,255583
-25,-51,168,-1624,564,255523
-47,-7,25,-1533,576,255573
5,50,-60,-1494,642,255549
64,34,19,-1497,670,255654
27,60,-82,-1606,656,255667
93,43,38,-1541,653,255563
39,27,72,-1460,640,255553
80,25,238,-1546,647,255519
-59,82,166,-1574,680,255567
58,61,155,-1478,654,255645
82,32,77,-1478,676,255543
150,94,-7,-1529,685,255583
202,121,109,-1521,690,255586
88,87,145,-1502,637,255573
147,55,226,-1533,683,255463
113,67,225,-1506,660,255607
95,50,190,-1562,636,255601
92,46,143,-1545,660,255680
93,102,79,-1551,595,255661
156,114,-7,-1487,675,255645
150,130,9,-1473,624,255556
120,44,114,-1483,681,255600
87,33,232,-1532,678,255568
118,-3,259,-1540,652,255579
56,-91,265,-1480,650,255709
33,-20,160,-1517,660,255593
56,78,86,-1456,679,255603
-10,106,-2,-1512,682,255709
69,27,86,-1576,619,255622
-50,90,117,-1534,629,255595
16,138,198,-1584,676,255569
5,70,245,-1534,702,255499
-66,33,316,-1500,675,255557
-126,50,224,-1520,680,255550
-96,101,97,-1559,668,255549
-35,67,-25,-1405,621,255559
-77,91,18,-1528,627,255650
-30,108,239,-1490,660,255695
-83,-44,396,-1521,719,255648
-153,-44,288,-1549,613,255671
-212,-39,141,-1500,616,255550
-279,-20,60,-1513,665,255572
-112,-50,53,-1487,674,255656
-71,-66,27,-1554,692,255634
-48,-22,49,-1539,702,255571
-174,0,132,-1552,687,255666
-285,55,149,-1554,557,255645
-139,74,217,-1539,603,255575
-176,52,227,-1496,576,255590
-196,42,177,-1559,595,255498
-197,87,132,-1563,539,255562
-197,144,-4,-1556,614,255664
-141,91,7,-1489,639,255575
-195,26,91,-1432,598,255532
-190,34,232,-1522,570,255571
-310,61,299,-1541,649,255566
-347,34,356,-1583,671,255609
-354,72,299,-1543,668,255551
-223,140,174,-1556,620,255611
-200,128,-11,-1563,676,255610
-205,134,1,-1573,692,255554
-234,141,96,-1502,614,255690
-199,99,238,-1588,633,255657
-171,47,296,-1516,568,255626
-217,-4,367,-1483,649,255666
-293,31,320,-1499,631,255643
-135,99,329,-1514,611,255523
-171,117,156,-1518,670,255511
-58,85,179,-1537,658,255532
-187,48,139,-1553,626,255548
-141,61,300,-1490,664,255608
-200,37,315,-1496,652,255625
-191,-21,334,-1574,691,255560
-146,-72,214,-1492,641,255615
-130,7,-7,-1499,664,255499
-20,52,-7,-1525,712,255613
-61,30,-12,-1528,643,255571
-3,117,197,-1541,644,255574
52,52,343,-1563,581,255493
-73,20,293,-1476,645,255551
-59,38,236,-1474,605,255565
9,-31,51,-1544,614,255513
115,88,134,-1579,555,255615
21,53,-38,-1515,615,255641
42,-12,-46,-1531,704,255597
91,85,237,-1499,587,255520
-47,39,83,-1528,622,255509
21,74,301,-1519,635,255640
-130,41,128,-1462,615,255564
5,-23,8,-1554,668,255575
54,142,174,-1483,659,255618
30,10,-98,-1491,710,255470
108,48,44,-1612,659,255555
89,9,126,-1500,616,255644
81,-76,233,-1512,616,255579
-40,113,380,-1620,643,255588
28,-55,376,-1649,605,255605
-3,-12,163,-1560,676,255558
182,103,219,-1513,618,255564
-32,-39,-129,-1403,613,255551
67,79,137,-1579,644,255451
20,154,288,-1511,602,255606
-115,112,192,-1521,587,255618
13,45,327,-1616,653,255653
-80,92,204,-1539,580,255569
7,136,207,-1578,697,255540
57,94,189,-1583,689,255572
-58,170,-119,-1477,619,255712
127,211,-76,-1465,623,255514
172,183,196,-1530,678,255621
-27,177,135,-1540,581,255611
84,203,265,-1537,644,255535
80,99,355,-1513,544,255590
-108,70,-6,-1551,543,255624
188,197,18,-1656,653,255519
130,53,-178,-1429,640,255613
72,89,-213,-1471,620,255680
191,236,70,-1445,695,255623
-66,130,-31,-1409,702,255657
95,50,183,-1592,730,255574
1,143,167,-1467,631,255581
-46,144,51,-1466,646,255553
123,48,62,-1422,663,255581
33,111,-156,-1531,567,255622
179,116,67,-1535,644,255651
60,46,223,-1535,645,255714
-2,84,151,-1478,554,255644
127,79,334,-1513,644,255676
-103,38,163,-1507,638,255692
70,20,208,-1449,624,255699
82,119,152,-1504,655,255638
17,78,-65,-1566,659,255624
101,48,133,-1504,621,255546
130,120,305,-1569,619,255565
-59,177,250,-1522,663,255606
-26,86,329,-1516,628,255575
81,-51,321,-1530,635,255478
49,34,259,-1487,679,255595
-12,37,-28,-1464,668,255662
196,-49,244,-1486,658,255566
71,10,81,-1539,686,255569
56,47,29,-1589,695,255679
120,50,193,-1553,694,255661
79,-100,394,-1518,661,255619
-227,-77,80,-1463,639,255721
160,15,207,-1578,726,255654
91,-61,64,-1522,653,255604
-95,-43,-149,-1602,630,255589
88,60,-87,-1527,712,255663
177,119,166,-1482,704,255390
-106,37,126,-1441,655,255550
-144,40,197,-1482,622,255623
16,104,229,-1608,615,255535
-15,2,174,-1455,630,255553
-219,42,-183,-1473,666,255687
98,126,-46,-1495,649,255612
57,76,63,-1456,666,255531
-159,107,-30,-1444,621,255574
-101,200,113,-1464,577,255643
54,124,336,-1528,616,255668
-214,6,241,-1523,573,255601
-246,185,-7,-1578,705,255555
119,148,130,-1614,678,255608
-197,54,-58,-1578,715,255553
-140,137,-58,-1470,706,255539
46,171,207,-1483,602,255553
-108,108,266,-1547,609,255593
-243,91,132,-1517,620,255696
-70,119,348,-1622,689,255568
-59,2,368,-1449,600,255583
-277,-49,9,-1417,678,255576
-21,66,78,-1441,652,255648
31,-15,132,-1509,660,255550
-150,22,37,-1549,724,255572
-106,186,280,-1531,738,255550
-106,57,312,-1565,728,255568
-150,-45,348,-1486,662,255688
-154,57,234,-1455,671,255670
0,35,247,-1502,719,255640
-128,-34,92,-1444,700,255651
-23,39,96,-1588,659,255571
95,142,286,-1478,656,255617
-147,106,168,-1442,687,255601
-70,99,217,-1497,609,255601
-6,100,365,-1498,702,255572
-90,61,293,-1551,631,255515
-106,39,-2,-1498,634,255652
121,24,91,-1542,660,255604
50,6,-10,-1455,668,255506
3,15,-20,-1484,691,255482
91,65,343,-1537,657,255624
-131,-15,155,-1446,619,255771
32,-6,202,-1588,661,255627
-14,49,186,-1497,633,255648
-14,-17,81,-1532,587,255465
36,-31,97,-1482,666,255552
129,-43,84,-1560,621,255558
65,16,79,-1572,669,255547
81,-5,245,-1501,609,255525
-26,-27,207,-1579,616,255660
173,-25,374,-1572,670,255614
-7,-42,125,-1546,679,255530
97,-30,110,-1574,603,255481
79,20,2,-1491,678,255556
170,56,47,-1527,693,255561
107,141,21,-1512,664,255573
108,113,94,-1601,718,255546
109,65,119,-1497,750,255615
68,103,172,-1552,645,255651
60,109,169,-1573,636,255674
29,71,146,-1505,683,255621
39,86,-109,-1506,700,255661
221,171,63,-1532,647,255618
-1,162,-106,-1497,676,255598
57,116,236,-1621,669,255621
-139,222,37,-1607,618,255629
137,110,442,-1530,657,255596
-203,73,29,-1384,562,255589
109,41,224,-1585,614,255527
-120,73,-63,-1437,651,255648
100,99,87,-1547,680,255552
-62,103,13,-1423,630,255643
-3,99,211,-1609,589,255593
-42,81,238,-1418,631,255588
-109,104,292,-1570,658,255589
-158,68,170,-1510,684,255535
-50,30,195,-1566,626,255512
-44,13,-15,-1430,571,255499
130,-8,145,-1448,619,255593
-135,17,35,-1530,674,255544
-95,35,254,-1518,684,255551
-192,83,184,-1501,694,255706
68,6,350,-1517,637,255641
-188,8,-3,-1421,718,255706
64,34,318,-1554,695,255547
-228,-20,38,-1466,622,255610
-4,130,106,-1610,580,255598
-36,40,68,-1479,664,255625
-60,4,81,-1573,646,255644
-30,47,276,-1539,688,255603
-238,47,205,-1467,663,255630
0,-29,240,-1579,631,255551
-15,-57,244,-1467,650,255620
-136,-73,178,-1496,641,255687
49,-34,276,-1510,606,255526
-120,-5,18,-1518,545,255618
68,-59,187,-1560,624,255614
-84,-44,250,-1548,650,255661
-106,-51,204,-1531,665,255663
-97,-10,71,-1550,672,255651
-30,-67,112,-1508,666,255672
66,-116,130,-1577,631,255604
2,26,156,-1557,636,255628
-52,-24,24,-1440,643,255677
-62,112,9,-1537,632,255616
149,98,320,-1548,661,255597
-269,83,106,-1419,609,255855
7,76,331,-1590,587,255708
-105,17,116,-1499,585,255552
1,115,98,-1707,569,255490
-67,87,-26,-1465,704,255638
-110,70,130,-1556,650,255565
-35,129,233,-1617,670,255643
-210,79,258,-1484,697,255634
-247,212,195,-1618,665,255706
-61,197,300,-1576,635,255663
-327,105,114,-1487,636,255624
-152,177,19,-1573,604,255556
-20,214,171,-1485,649,255598
-211,105,30,-1516,644,255605
-155,186,81,-1507,550,255574
-18,238,324,-1584,641,255612
-210,69,418,-1581,605,255644
-333,75,186,-1584,605,255574
-77,152,75,-1502,611,255610
41,37,305,-1494,641,255557
-245,2,74,-1496,594,255622
-226,55,78,-1463,579,255601
-72,114,130,-1533,599,255578
-39,20,287,-1499,672,255633
-359,64,96,-1542,710,255641
-104,130,224,-1517,686,255620
-35,-20,436,-1507,672,255580
-233,16,196,-1535,663,255592
-62,83,94,-1538,612,255560
23,-1,113,-1519,698,255517
-110,-59,131,-1485,713,255514
-95,146,304,-1535,674,255553
-157,136,249,-1509,676,255563
-61,-8,311,-1576,713,255537
-191,53,79,-1465,666,255544
15,-5,113,-1559,671,255623
-11,-30,46,-1515,666,255586
-53,-26,87,-1579,544,255559
-191,36,-79,-1514,696,255671
97,62,179,-1567,697,255560
-181,15,166,-1558,662,255680
-189,57,128,-1540,650,255646
9,6,82,-1544,705,255652
71,-56,-20,-1545,696,255547
5,-3,-20,-1557,673,255538
15,-34,111,-1448,697,255533
60,-85,250,-1497,658,255587
26,-42,115,-1478,669,255640
10,20,79,-1482,691,255657
63,-53,210,-1598,753,255548
67,-50,397,-1531,636,255644
-66,46,78,-1435,612,255602
253,73,100,-1490,667,255539
201,11,164,-1465,706,255613
12,34,84,-1523,708,255611
131,152,245,-1573,588,255657
142,104,289,-1531,620,255632
-11,62,104,-1518,596,255556
91,159,105,-1569,683,255482
203,87,171,-1509,646,255512
53,91,101,-1593,541,255521
107,166,134,-1573,652,255593
107,148,124,-1494,618,255610
101,204,148,-1472,681,255742
43,155,119,-1494,681,255557
-3,116,163,-1503,605,255532
29,116,184,-1496,590,255500
-14,94,139,-1541,620,255430
18,131,104,-1480,607,255584
29,68,134,-1572,617,255639
-66,118,-20,-1522,667,255604
131,186,241,-1604,628,255492
-205,170,-5,-1411,593,255668
40,61,214,-1540,606,255458
-121,104,109,-1524,605,255644
30,86,185,-1575,685,255610
-114,12,-37,-1440,685,255800
17,-10,82,-1561,619,255536
-61,28,-8,-1531,662,255586
-57,11,97,-1470,738,255661
-73,-33,155,-1539,717,255599
-97,17,200,-1541,556,255555
-30,28,173,-1561,632,255622
-24,5,125,-1526,656,255640
-24,1,93,-1580,605,255598
7,3,103,-1528,664,255616
-52,-12,105,-1491,592,255628
47,26,178,-1523,559,255574
-90,-23,110,-1490,630,255649
38,-55,292,-1580,638,255603
-2,15,273,-1542,565,255652
-23,27,183,-1559,642,255651
41,-64,99,-1539,751,255470
64,-39,136,-1484,634,255574
-12,19,161,-1492,665,255703
-18,32,175,-1486,722,255650
-36,-16,126,-1485,646,255669
-41,43,11,-1527,623,255537
41,44,166,-1530,688,255606
-38,18,72,-1458,697,255579
36,63,112,-1523,677,255593
47,69,57,-1532,658,255594
41,46,122,-1613,580,255633
60,105,79,-1561,616,255550
53,76,79,-1471,653,255567
18,57,75,-1516,637,255603
147,82,176,-1586,633,255613
55,88,154,-1545,664,255542
120,47,135,-1578,644,255590
172,95,182,-1507,581,255698
74,137,135,-1428,698,255649
164,112,155,-1563,681,255637
59,141,146,-1509,698,255583
131,132,101,-1549,643,255543
157,166,252,-1577,621,255640
2,190,192,-1519,572,255632
90,166,161,-1558,624,255678
109,209,197,-1495,637,255562
193,121,285,-1610,661,255497
-25,142,147,-1531,667,255584
16,147,211,-1482,672,255510
-8,59,118,-1440,617,255523
77,135,267,-1595,637,255502
-38,84,126,-1518,598,255532
-23,27,53,-1555,585,255526
54,116,160,-1599,656,255623
-76,82,-20,-1570,665,255584
-56,64,58,-1497,654,255583
-22,70,132,-1456,628,255552
-118,-31,-21,-1498,674,255531
-62,70,145,-1547,772,255659
-87,14,60,-1489,714,255560
-61,9,33,-1540,710,255594
-64,109,170,-1543,622,255546
-84,-33,45,-1541,561,255620
-128,97,15,-1517,643,255605
-75,78,109,-1536,620,255541
-107,-32,-40,-1510,580,255684
50,67,244,-1638,644,255603
-100,-60,46,-1515,678,255699
-44,-38,120,-1615,651,255716
41,46,281,-1500,603,255508
-143,-23,76,-1557,630,255499
2,16,305,-1526,624,255595
-6,-7,205,-1530,606,255622
-69,-46,50,-1519,722,255707
82,32,206,-1511,653,255520
-7,-47,253,-1535,620,255453
-132,-56,186,-1470,605,255591
97,-36,379,-1559,620,255616
-16,-79,178,-1455,676,255715
54,-69,236,-1499,664,255671
-53,-7,125,-1510,638,255605
1,20,-40,-1526,662,255631
95,55,77,-1389,615,255569
-54,25,-118,-1445,538,255525
160,32,75,-1565,636,255570
84,31,237,-1561,708,255747
-17,39,111,-1558,622,255644
124,104,409,-1593,664,255514
-50,110,299,-1487,589,255586
-10,134,-29,-1495,626,255541
174,172,-43,-1507,623,255576
56,107,-89,-1475,667,255561
1,131,-114,-1611,711,255537
185,246,85,-1549,662,255623
-48,236,-174,-1537,707,255515
61,189,-94,-1600,734,255494
45,197,125,-1549,693,255748
-119,221,67,-1515,657,255577
42,171,60,-1468,681,255444
-7,201,20,-1504,706,255605
6,210,150,-1533,649,255514
23,248,481,-1522,634,255589
-122,208,403,-1477,598,255620
15,188,278,-1615,631,255578
-66,150,72,-1503,617,255564
63,76,132,-1502,657,255559
-75,120,238,-1520,675,255549
-75,81,308,-1550,571,255537
-12,52,366,-1505,684,255628
36,97,559,-1448,726,255641
-173,70,391,-1478,679,255675
7,48,520,-1558,711,255546
-116,24,159,-1495,661,255586
-80,35,-43,-1485,621,255606
3,-8,26,-1512,679,255523
-167,-43,70,-1537,673,255640
-134,-2,299,-1565,640,255599
-89,-9,435,-1588,703,255681
-219,-32,355,-1611,650,255673
-156,-37,269,-1485,568,255641
-103,-75,200,-1518,696,255693
-163,-19,60,-1593,646,255654
-105,-16,14,-1502,685,255607
-107,-58,130,-1505,653,255684
-110,-6,200,-1490,628,255563
-242,3,126,-1498,602,255594
-177,-12,76,-1616,531,255595
-182,-73,38,-1547,603,255557
-254,-135,-69,-1512,658,255551
-144,-88,53,-1488,621,255516
-165,-98,22,-1377,585,255619
-178,-104,71,-1516,689,255628
-138,-45,291,-1523,678,255705
-184,-27,287,-1576,609,255644
-219,-43,195,-1541,611,255573
-206,-73,16,-1529,625,255505
-80,-68,103,-1539,587,255531
-191,-34,73,-1579,555,255636
-163,-17,79,-1578,616,255572
-120,3,150,-1532,653,255675
-49,36,255,-1538,667,255606
-147,76,225,-1491,615,255681
-157,66,174,-1519,613,255587
-69,50,222,-1520,623,255569
-161,39,35,-1512,641,255675
-104,155,44,-1528,538,255686
-25,137,205,-1535,697,255622
-167,43,231,-1560,715,255720
-93,139,373,-1567,624,255643
-123,152,277,-1488,615,255602
-97,91,378,-1538,655,255617
-223,117,199,-1506,667,255675
-30,130,290,-1517,700,255687
-132,126,111,-1458,674,255708
-87,155,107,-1523,616,255511
-161,184,77,-1520,624,255556
-55,142,315,-1552,697,255539
-188,135,211,-1424,589,255494
-190,140,229,-1544,616,255538
-132,42,137,-1531,618,255635
-62,26,152,-1531,621,255597
-219,89,-52,-1441,677,255607
-10,85,141,-1568,717,255525
-114,67,157,-1475,667,255618
-105,115,126,-1523,604,255626
-111,138,27,-1546,603,255636
-63,25,236,-1518,618,255603
-212,5,74,-1539,603,255602
-52,33,209,-1557,704,255557
-97,-20,43,-1426,710,255529
5,43,69,-1512,634,255472
-65,26,69,-1496,650,255614
-52,28,132,-1528,525,255519
21,89,175,-1558,598,255584
-102,-16,156,-1514,680,255705
-120,-45,53,-1536,625,255588
127,16,169,-1586,640,255599
-18,-32,90,-1464,661,255622
53,-13,114,-1530,654,255413
95,-2,99,-1462,692,255519
126,19,229,-1553,564,255626
35,-4,243,-1536,605,255652
-34,-15,211,-1475,612,255588
80,15,164,-1557,690,255643
131,-31,144,-1522,583,255601
-27,30,-13,-1480,589,255595
156,95,70,-1516,618,255542
151,33,171,-1529,689,255650
61,105,114,-1543,616,255673
111,168,145,-1588,665,255686
163,97,289,-1560,597,255699
55,84,222,-1514,520,255501
134,156,84,-1508,666,255589
252,59,52,-1447,636,255679
135,40,-29,-1593,610,255559
170,152,-25,-1543,617,255573
229,119,193,-1493,664,255566
131,62,228,-1527,670,255591
56,97,229,-1539,694,255589
112,57,238,-1533,655,255619
196,65,184,-1507,645,255488
57,139,-11,-1495,714,255520
125,138,-64,-1512,678,255710
215,36,115,-1505,624,255543
102,31,126,-1575,559,255624
74,81,116,-1583,642,255617
144,52,212,-1588,660,255636
136,3,250,-1502,600,255650
-8,49,139,-1528,626,255568
173,92,216,-1565,664,255553
102,38,126,-1486,588,255733
83,60,55,-1507,653,255517
111,158,54,-1524,627,255555
70,77,183,-1590,681,255609
-80,34,132,-1543,674,255738
83,44,256,-1525,658,255596
-18,60,117,-1566,672,255463
-34,-3,74,-1531,640,255528
-17,4,-2,-1438,730,255634
104,23,131,-1454,695,255573
-67,-8,-140,-1512,648,255615
47,72,150,-1536,677,255616
-136,-16,200,-1436,626,255627
-148,-30,164,-1538,588,255610
-98,41,83,-1461,626,255603
16,-38,56,-1478,665,255514
-86,24,36,-1526,641,255518
-145,12,30,-1449,638,255561
-61,59,63,-1489,636,255548
-73,96,267,-1513,651,255623
-285,37,85,-1505,646,255669
-45,83,279,-1515,589,255517
-133,90,168,-1512,569,255645
-146,36,-54,-1499,562,255607
59,99,156,-1512,584,255548
-42,91,140,-1464,603,255617
-105,121,82,-1489,603,255530
3,195,309,-1561,644,255511
-111,95,227,-1593,591,255512
-64,174,177,-1560,642,255522
46,172,254,-1547,719,255559
-35,51,19,-1502,575,255740
69,133,107,-1550,615,255588
48,110,142,-1536,609,255651
46,115,172,-1574,672,255585
82,137,369,-1533,731,255635
-102,31,186,-1480,640,255611
126,129,411,-1553,632,255608
-43,86,184,-1481,636,255738
-17,27,83,-1536,688,255661
102,59,130,-1511,650,255649
102,38,157,-1476,627,255562
6,67,41,-1623,587,255669
150,58,220,-1573,646,255519
-38,41,135,-1523,616,255573
37,54,210,-1544,587,255590
24,4,270,-1463,685,255650
-27,-20,43,-1490,672,255541
94,48,-12,-1574,668,255646
83,85,-22,-1591,678,255672
8,51,-30,-1424,621,255688
40,114,102,-1506,603,255597
-7,94,108,-1487,610,255545
9,49,159,-1550,601,255566
-13,95,90,-1460,655,255651
-58,41,-73,-1423,719,255509
131,17,83,-1492,689,255601
26,59,-44,-1505,669,255717
78,77,85,-1616,692,255592
-31,41,154,-1539,659,255630
6,31,248,-1595,603,255615
-32,91,100,-1454,665,255622
56,-4,121,-1577,680,255549
-37,-50,29,-1498,595,255586
77,-16,232,-1547,577,255636
-46,5,94,-1454,655,255674
67,32,174,-1527,648,255612
-49,5,107,-1484,649,255557
-24,51,217,-1571,608,255651
-64,105,279,-1467,641,255699
-83,77,201,-1508,684,255676
-75,59,99,-1538,667,255660
17,30,66,-1487,640,255583
-47,74,75,-1440,631,255624
-64,131,104,-1468,659,255550
-68,157,151,-1487,595,255605
-101,91,173,-1574,660,255597
-95,133,269,-1546,654,255614
-151,140,171,-1483,661,255676
-91,100,91,-1517,653,255620
-15,122,128,-1455,698,255585
-19,90,-4,-1450,614,255652
-46,185,190,-1467,625,255585
-114,77,203,-1482,634,255493
-109,107,272,-1563,620,255628
-26,175,346,-1593,628,255577
-127,23,43,-1486,568,255623
-72,107,169,-1491,608,255606
43,54,78,-1538,663,255503
-56,96,-42,-1498,684,255597
43,125,103,-1507,654,255623
-29,21,16,-1462,662,255599
9,123,392,-1616,612,255595
-73,62,124,-1486,603,255673
15,82,233,-1505,642,255559
-27,-2,168,-1487,595,255576
26,-42,161,-1598,576,255504
-24,88,131,-1539,643,255545
77,-49,128,-1538,663,255620
-52,-12,238,-1493,782,255595
-30,9,204,-1516,702,255543
-61,-29,221,-1534,663,255569
-89,-93,137,-1458,633,255705
-23,-151,101,-1545,640,255589
-29,-60,178,-1479,717,255541
-2,-131,71,-1525,643,255537
-48,-65,241,-1511,585,255486
-130,-11,75,-1471,545,255519
-48,-25,109,-1520,664,255625
-104,56,144,-1488,655,255629
-133,-43,4,-1480,718,255501
-103,15,136,-1558,692,255623
-47,-3,18,-1573,685,255577
-4,36,139,-1563,641,255569
-100,79,191,-1490,658,255518
-67,45,90,-1547,609,255560
15,148,376,-1547,653,255513
-66,119,226,-1531,644,255657
-20,166,323,-1533,668,255566
64,82,204,-1452,633,255615
89,169,112,-1497,576,255596
113,210,158,-1514,631,255614
22,156,26,-1530,637,255536
61,238,174,-1551,650,255523
28,243,104,-1508,635,255560
-13,285,257,-1508,656,255570
-15,152,202,-1498,642,255501
-16,167,117,-1585,718,255529
106,169,222,-1594,635,255572
-64,114,17,-1442,639,255660
-13,124,219,-1612,658,255533
-75,72,129,-1560,650,255647
-92,138,316,-1570,673,255604
-180,71,306,-1534,619,255660
-327,-14,113,-1521,689,255728
-130,-14,332,-1558,643,255563
-308,12,-27,-1413,634,255623
-147,-54,260,-1649,715,255657
-416,-80,-42,-1488,609,255641
-199,-12,207,-1539,640,255644
-409,-20,131,-1501,669,255660
-391,-41,235,-1599,644,255542
-481,-11,80,-1596,687,255490
-400,-71,48,-1550,691,255518
-413,-125,112,-1487,651,255500
-398,-88,97,-1495,656,255571
-304,-118,215,-1551,727,255682
-277,-134,301,-1509,674,255680
-258,-62,276,-1446,624,255636
-217,-61,273,-1594,644,255575
-201,-95,13,-1522,676,255566
24,-78,251,-1556,588,255594
-122,-91,-35,-1534,600,255600
169,-149,290,-1580,640,255580
-66,-108,-12,-1438,583,255538
313,-110,285,-1533,622,255559
76,-73,46,-1450,652,255709
284,-56,148,-1554,567,255637
152,-56,114,-1490,605,255637
263,-38,191,-1543,611,255561
340,20,266,-1602,684,255567
188,61,138,-1483,674,255503
288,62,267,-1517,627,255547
169,194,229,-1459,649,255536
193,235,251,-1493,706,255577
118,261,178,-1506,615,255559
118,229,106,-1576,641,255467
165,260,231,-1510,550,255580
-13,339,28,-1490,547,255765
183,285,321,-1528,635,255516
-174,307,-19,-1548,655,255547
116,378,274,-1608,782,255606
-244,327,110,-1408,703,255673
-181,277,256,-1634,734,255563
-312,206,202,-1510,696,255544
-343,188,200,-1532,640,255537
-276,152,202,-1553,645,255599
-397,132,202,-1601,654,255670
-366,114,200,-1542,690,255605
-325,174,212,-1495,708,255484
-429,171,185,-1499,676,255568
-369,150,157,-1574,679,255541
-399,127,166,-1531,614,255634
-297,85,28,-1540,670,255623
-228,90,29,-1564,644,255552
-262,59,-35,-1473,622,255567
-174,59,9,-1523,588,255615
-125,112,168,-1560,561,255571
-172,74,206,-1572,593,255574
-230,50,150,-1592,617,255524
-83,-89,124,-1493,591,255561
-156,-146,32,-1401,584,255574
-41,-149,203,-1523,591,255544
-153,-284,168,-1532,673,255632
28,-244,220,-1593,617,255590
77,-216,147,-1479,520,255664
-12,-243,136,-1558,582,255585
135,-224,48,-1510,663,255542
217,-278,185,-1495,637,255502
132,-218,-41,-1581,629,255540
377,-205,89,-1569,593,255591
181,-234,-31,-1449,571,255731
407,-120,59,-1553,652,255723
325,-21,61,-1524,660,255565
288,-22,-37,-1496,616,255585
365,51,3,-1507,616,255640
321,81,3,-1465,641,255514
357,42,49,-1575,630,255532
390,88,91,-1559,622,255614
414,83,105,-1508,642,255566
416,65,170,-1606,681,255620
495,89,205,-1527,646,255585
415,130,97,-1548,645,255527
507,181,185,-1587,653,255549
487,119,216,-1556,646,255770
444,114,163,-1588,580,255578
548,132,108,-1543,598,255607
505,52,137,-1477,652,255550
470,77,144,-1404,650,255628
485,125,229,-1419,676,255630
308,149,184,-1543,630,255591
339,175,216,-1590,580,255486
235,157,194,-1533,644,255646
192,159,190,-1567,682,255596
88,167,184,-1494,730,255632
13,146,211,-1549,728,255519
-16,168,250,-1619,611,255540
-110,222,127,-1584,637,255603
-126,236,150,-1539,683,255618
-311,205,64,-1499,626,255611
-224,182,105,-1535,668,255623
-373,157,-22,-1506,645,255679
-353,96,36,-1551,588,255601
-416,96,59,-1526,651,255605
-443,90,167,-1495,598,255621
-500,118,82,-1429,628,255661
-535,119,76,-1476,666,255614
-581,132,-16,-1535,662,255615
-506,121,132,-1495,700,255617
-674,56,31,-1526,683,255579
-514,43,165,-1607,640,255581
-583,8,74,-1518,664,255631
-471,13,139,-1568,681,255452
-478,68,126,-1456,686,255589
-474,12,117,-1592,615,255605
-393,52,76,-1637,577,255576
-308,44,31,-1530,646,255550
-254,16,17,-1514,639,255566
-221,12,74,-1531,639,255667
-112,-31,88,-1528,679,255620
-2,16,139,-1520,654,255569
30,51,72,-1499,619,255554
64,96,92,-1516,654,255580
86,107,163,-1576,610,255540
169,136,124,-1529,673,255494
230,140,172,-1469,689,255571
234,39,130,-1521,583,255675
354,41,230,-1489,673,255600
365,90,260,-1460,687,255690
395,85,210,-1539,701,255708
411,87,144,-1452,699,255586
478,96,127,-1436,667,255589
481,97,154,-1498,609,255624
462,26,179,-1419,562,255634
502,-12,179,-1497,598,255534
517,-30,127,-1492,603,255598
580,18,182,-1480,654,255517
486,30,235,-1491,573,255610
503,16,294,-1557,620,255591
490,57,240,-1472,673,255662
519,73,219,-1512,626,255626
396,18,157,-1469,654,255592
301,17,186,-1504,682,255509
371,-18,267,-1554,680,255550
242,-19,206,-1481,613,255641
260,17,236,-1605,656,255528
85,43,124,-1570,624,255555
78,94,67,-1542,597,255507
91,96,108,-1594,615,255512
-87,30,64,-1513,668,255620
-65,39,177,-1535,648,255601
-152,19,261,-1504,627,255604
-226,-6,278,-1602,642,255585
-257,59,244,-1561,665,255626
-382,51,121,-1510,672,255685
-322,105,168,-1555,605,255588
-463,124,101,-1464,616,255606
-487,81,117,-1598,662,255565
-540,70,25,-1585,609,255584
-496,27,100,-1516,662,255556
-656,62,55,-1594,700,255588
-595,113,92,-1576,666,255595
-667,120,89,-1521,591,255553
-710,200,40,-1546,661,255633
-626,233,72,-1506,625,255613
-658,151,85,-1502,663,255617
-656,156,176,-1562,611,255652
-544,145,214,-1561,616,255681
-547,82,174,-1502,647,255661
-506,94,126,-1521,552,255557
-473,123,160,-1468,600,255650
-403,122,152,-1504,603,255596
-356,134,96,-1491,644,255543
-345,138,109,-1490,671,255524
-274,88,197,-1497,686,255647
-195,55,172,-1451,636,255742
-126,140,198,-1518,599,255566
-120,126,93,-1542,677,255609
-36,109,150,-1537,673,255681
-8,211,50,-1501,697,255570
150,235,27,-1563,699,255674
190,116,150,-1445,609,255694
153,57,130,-1555,591,255669
258,86,188,-1519,638,255631
368,0,272,-1525,607,255638
357,-79,137,-1569,611,255669
430,-22,104,-1458,582,255656
555,-36,192,-1502,623,255564
491,-35,156,-1522,638,255588
428,-74,31,-1472,599,255653
555,-119,27,-1495,558,255651
586,-203,160,-1536,576,255585
418,-229,10,-1496,594,255559
552,-140,309,-1557,660,255610
411,-125,189,-1484,568,255747
535,-85,268,-1573,642,255781
358,-27,69,-1529,612,255612
466,-130,214,-1522,603,255472
300,-87,218,-1484,601,255594
345,-43,343,-1537,616,255688
269,-64,279,-1529,659,255585
212,-12,275,-1572,642,255502
114,3,201,-1488,707,255646
70,57,256,-1553,694,255619
7,134,157,-1559,669,255662
-16,73,99,-1557,616,255545
-23,70,204,-1503,588,255524
-130,126,224,-1542,635,255713
-233,135,169,-1539,649,255738
-193,139,359,-1480,605,255671
-395,156,244,-1558,651,255731
-316,218,167,-1560,640,255650
-342,203,142,-1592,636,255583
-464,150,16,-1537,634,255482
-389,166,137,-1605,713,255575
-454,127,232,-1524,633,255614
-474,81,137,-1495,580,255604
-501,186,208,-1556,605,255466
-524,146,163,-1595,662,255544
-559,223,-76,-1577,657,255566
-453,225,9,-1553,640,255649
-613,114,-100,-1497,621,255687
-504,95,97,-1584,596,255548
-512,100,137,-1534,604,255637
-579,44,86,-1541,615,255576
-459,44,155,-1588,669,255541
-455,127,123,-1509,741,255479
-421,175,19,-1531,718,255594
-348,119,25,-1440,628,255684
-395,70,31,-1523,614,255573
-265,81,182,-1577,608,255640
-327,55,241,-1562,682,255664
-294,-34,191,-1541,720,255617
-183,-42,162,-1522,664,255421
-183,-14,201,-1534,611,255537
-177,-3,75,-1497,648,255550
-77,-45,110,-1596,661,255583
-72,-88,-28,-1529,654,255549
43,-50,126,-1513,629,255575
-4,-95,211,-1516,650,255712
44,-175,345,-1554,601,255578
14,-216,353,-1491,626,255613
165,-178,340,-1535,693,255667
127,-101,217,-1522,656,255699
192,-131,215,-1541,724,255610
190,-116,262,-1472,597,255665
280,-79,309,-1496,623,255566
306,-70,293,-1532,681,255645
260,-78,302,-1457,732,255572
228,-69,249,-1546,594,255610
282,1,327,-1535,660,255527
212,61,195,-1558,637,255638
250,74,64,-1551,682,255523
298,-49,157,-1557,645,255569
249,-2,134,-1527,627,255572
266,98,265,-1538,687,255640
157,-2,233,-1516,689,255600
221,0,331,-1529,605,255544
159,103,210,-1531,650,255661
151,100,95,-1591,711,255638
121,72,-14,-1533,523,255626
147,78,-18,-1504,632,255609
93,99,9,-1516,637,255722
111,94,151,-1560,570,255633
-19,118,125,-1538,628,255602
17,164,160,-1622,703,255591
-8,164,47,-1549,657,255571
-54,188,46,-1579,615,255434
-117,235,5,-1558,617,255517
-111,190,80,-1481,658,255571
-162,205,27,-1470,564,255514
-66,192,51,-1527,620,255600
-194,114,48,-1442,654,255627
-133,116,188,-1543,681,255591
-164,142,219,-1515,646,255646
-145,138,166,-1526,711,255590
-134,97,110,-1499,640,255597
-97,90,43,-1548,677,255560
-31,93,80,-1553,671,255622
-100,50,84,-1600,640,255680
-48,13,153,-1618,619,255618
-73,0,106,-1480,643,255522
-34,29,157,-1566,627,255661
-148,68,41,-1498,645,255788
-50,57,57,-1529,694,255654
-6,51,34,-1503,642,255494
44,34,61,-1568,713,255593
46,73,116,-1492,664,255679
20,25,187,-1514,653,255692
62,51,223,-1538,562,255582
57,99,187,-1509,617,255683
59,98,42,-1456,661,255537
158,117,10,-1467,646,255540
163,78,20,-1507,654,255508
251,64,45,-1554,590,255555
230,42,42,-1523,592,255583
160,-7,64,-1452,580,255498
200,12,154,-1516,582,255610
164,-7,145,-1570,600,255653
197,18,23,-1517,670,255640
248,25,-92,-1503,677,255576
308,46,12,-1447,665,255552
209,77,84,-1476,619,255613
175,1,117,-1496,629,255598
149,-8,130,-1495,628,255520
169,0,154,-1584,633,255517
144,38,188,-1502,644,255581
116,0,177,-1501,662,255643
135,33,84,-1538,652,255594
167,62,107,-1529,611,255676
96,50,101,-1510,607,255537
103,46,208,-1483,665,255558
26,23,199,-1576,661,255509
95,27,276,-1522,587,255486
18,60,256,-1460,628,255587
-48,32,234,-1485,587,255565
-33,70,206,-1520,586,255628
-13,41,182,-1507,682,255565
-37,90,101,-1481,628,255524
-16,45,174,-1446,581,255646
-88,15,233,-1512,597,255637
-86,97,261,-1559,672,255505
-92,87,211,-1564,731,255645
-158,60,193,-1570,671,255576
-157,104,55,-1625,636,255548
-81,117,57,-1549,746,255586
-99,81,-9,-1519,680,255548
-60,74,92,-1581,596,255496
-181,77,71,-1534,668,255458
-97,73,206,-1528,665,255441
-205,104,131,-1487,641,255531
-186,126,37,-1591,635,255575
-90,108,-1,-1506,700,255653
-60,119,50,-1499,544,255623
-114,181,46,-1497,575,255603
-88,156,154,-1550,648,255631
-132,118,148,-1510,669,255723
-50,180,271,-1531,685,255672
-145,199,214,-1561,630,255673
-57,146,211,-1596,651,255560
-10,176,114,-1537,650,255455
36,218,79,-1545,691,255556
28,188,100,-1604,686,255661
47,147,226,-1559,682,255769
-12,149,266,-1449,679,255700
53,150,334,-1519,708,255523
37,86,278,-1493,726,255565
54,61,183,-1557,626,255574
103,73,188,-1527,612,255483
78,95,137,-1509,669,255556
108,96,173,-1560,580,255557
111,14,193,-1545,574,255551
76,61,238,-1569,659,255497
120,68,278,-1540,699,255530
13,21,263,-1472,625,255553
-14,52,150,-1532,634,255599
120,19,79,-1486,618,255648
61,-13,139,-1453,614,255640
-39,9,97,-1445,579,255691
-49,41,28,-1568,679,255476
152,1,320,-1605,657,255632
-138,-33,180,-1593,630,255678
-111,27,166,-1657,713,255685
-54,15,234,-1616,624,255564
-180,-35,33,-1598,689,255496
-125,41,14,-1555,706,255644
-104,2,-30,-1516,622,255606
-104,-89,22,-1510,619,255593
-201,-33,63,-1528,613,255587
-164,23,211,-1556,691,255568
-291,-20,121,-1506,618,255635
-238,-33,140,-1573,687,255629
-200,47,49,-1512,699,255649
-156,7,115,-1549,676,255605
-302,-16,-94,-1560,654,255683
-147,50,63,-1579,630,255534
-214,-17,128,-1533,654,255591
-256,32,250,-1488,623,255607
-332,45,201,-1525,719,255629
-182,11,239,-1532,611,255607
-242,73,101,-1483,638,255613
-148,44,41,-1554,712,255529
-123,80,181,-1582,679,255560
-215,117,80,-1566,616,255588
-77,83,208,-1503,635,255555
-141,121,297,-1524,611,255613
-125,119,196,-1554,608,255686
-119,144,213,-1538,593,255760
-26,148,225,-1531,667,255614
-70,150,94,-1379,688,255632
11,186,188,-1490,666,255627
18,185,283,-1468,679,255566
17,167,260,-1564,699,255549
72,177,257,-1528,714,255627
-29,133,251,-1541,611,255625
-46,151,79,-1563,578,255617
116,147,254,-1539,642,255653
5,140,35,-1594,666,255639
173,86,87,-1566,690,255605
55,116,115,-1524,623,255527
89,120,142,-1461,617,255455
97,123,263,-1540,656,255559
20,101,162,-1563,641,255613
126,29,114,-1524,632,255576
118,39,61,-1517,617,255565
109,15,17,-1573,619,255609
68,16,8,-1517,556,255629
186,-16,157,-1501,561,255573
82,-47,153,-1535,543,255481
128,-36,215,-1565,639,255494
22,-65,274,-1541,647,255608
-38,-51,148,-1574,545,255561
145,-22,200,-1524,582,255624
-19,-45,91,-1521,623,255587
56,-66,114,-1526,688,255577
67,-50,165,-1479,708,255477
-12,4,130,-1577,653,255516
28,-35,295,-1576,676,255524
-184,-74,284,-1505,651,255629
-102,-50,275,-1648,678,255643
-60,-50,223,-1498,639,255746
-149,-59,119,-1498,624,255675
-117,-61,152,-1565,597,255571
-115,-14,178,-1540,594,255614
-140,31,269,-1477,663,255613
-240,17,259,-1549,671,255585
-203,20,312,-1478,611,255608
-407,112,106,-1475,534,255670
-175,57,110,-1529,629,255543
-261,0,170,-1488,646,255541
-385,45,-43,-1450,611,255437
-119,74,211,-1558,657,255600
-388,11,139,-1513,658,255649
-214,83,207,-1598,607,255563
-343,150,213,-1387,679,255764
-341,107,15,-1535,618,255599
-8,63,328,-1547,671,255501
-464,114,-191,-1548,634,255614
-50,157,130,-1663,622,255539
-212,7,123,-1483,704,255635
-207,59,-126,-1586,577,255668
25,196,327,-1527,642,255521
-473,73,9,-1433,597,255606
-3,94,339,-1655,637,255535
-141,252,176,-1490,614,255690
-166,119,-129,-1575,618,255561
110,186,162,-1548,678,255603
-54,74,74,-1495,639,255601
-1,192,153,-1644,649,255550
21,153,336,-1504,656,255492
-179,-66,-52,-1497,613,255501
229,158,435,-1570,650,255517
-144,-17,-24,-1425,711,255705
92,7,319,-1630,561,255504
49,72,82,-1373,636,255717
135,-143,190,-1484,707,255652
41,86,110,-1432,662,255550
217,-52,261,-1446,591,255601
-123,-34,221,-1496,662,255705
235,-55,365,-1589,609,255640
-30,-115,8,-1469,613,255623
262,41,181,-1554,599,255375
130,-149,62,-1460,662,255645
31,-37,102,-1558,687,255566
325,-17,176,-1534,656,255626
32,-62,210,-1492,694,255532
78,19,200,-1534,595,255513
158,-42,291,-1563,606,255623
59,39,9,-1503,666,255586
247,4,68,-1547,698,255476
-8,-96,81,-1523,647,255554
240,-62,141,-1554,589,255524
83,44,191,-1443,672,255563
55,0,99,-1484,691,255574
53,-71,197,-1549,621,255551
39,79,204,-1573,615,255557
61,37,79,-1481,684,255622
-49,-39,114,-1540,658,255558
69,-28,-94,-1498,613,255469
89,-4,62,-1486,686,255543
-2,16,-68,-1535,625,255524
79,-16,126,-1583,686,255562
-106,41,115,-1486,719,255705
3,28,152,-1535,653,255651
-113,30,54,-1549,696,255602
16,76,111,-1525,659,255561
-78,74,11,-1524,654,255574
47,83,179,-1541,573,255535
-23,60,5,-1454,623,255669
-4,80,171,-1537,557,255531
-68,156,75,-1422,610,255596
-44,141,377,-1577,622,255582
-146,137,22,-1516,641,255649
108,94,264,-1573,624,255533
-141,99,-159,-1521,618,255548
253,97,281,-1523,659,255448
-157,85,-29,-1472,646,255684
154,157,251,-1644,636,255662
-116,136,57,-1514,683,255697
157,116,265,-1512,719,255486
20,176,32,-1521,630,255613
99,108,57,-1537,639,255555
183,31,198,-1534,625,255489
111,65,244,-1581,669,255560
135,121,156,-1525,709,255544
147,104,187,-1491,695,255493
112,30,163,-1450,666,255584
156,184,178,-1473,659,255595
98,103,91,-1485,734,255676
221,59,165,-1530,661,255652
102,104,12,-1512,572,255584
283,41,180,-1573,616,255533
89,60,45,-1575,646,255482
170,114,216,-1555,574,255421
82,94,214,-1547,707,255717
124,83,261,-1601,673,255642
69,96,108,-1447,612,255564
82,94,48,-1514,598,255701
169,-9,228,-1546,644,255701
16,123,-69,-1537,648,255741
169,6,73,-1530,710,255608
-7,13,37,-1505,705,255586
62,56,75,-1578,599,255639
-43,65,202,-1496,593,255618
-83,78,-53,-1564,634,255563
86,52,29,-1588,615,255613
-55,64,-51,-1423,675,255584
69,-4,72,-1516,695,255662
-43,107,89,-1532,678,255601
-65,120,17,-1553,628,255590
20,46,218,-1541,641,255600
-137,139,199,-1462,651,255669
-101,72,174,-1511,655,255637
-58,83,211,-1512,654,255538
-84,-36,130,-1479,586,255556
-110,79,30,-1577,568,255482
39,45,197,-1513,664,255521
-228,10,159,-1508,580,255592
-89,173,194,-1636,541,255544
-168,87,209,-1491,621,255602
-159,79,201,-1586,651,255529
-130,62,104,-1517,641,255636
-148,38,263,-1521,690,255531
-132,95,85,-1547,710,255524
-106,15,172,-1485,674,255475
-185,79,103,-1551,689,255548
-12,64,297,-1589,670,255480
-264,158,267,-1516,721,255613
-185,182,204,-1512,633,255559
-31,97,312,-1579,634,255612
-130,119,151,-1528,543,255624
-36,68,174,-1499,627,255592
-72,83,175,-1518,580,255592
-128,86,113,-1523,632,255569
-23,169,270,-1554,656,255580
-137,196,89,-1514,658,255666
15,78,285,-1607,657,255689
-119,160,-33,-1488,651,255557
86,152,190,-1526,715,255574
-90,166,-53,-1514,654,255669
117,89,116,-1537,634,255489
-40,71,93,-1439,592,255698
-17,194,159,-1486,629,255642
-78,152,107,-1454,675,255613
9,140,117,-1442,725,255577
18,21,29,-1570,660,255596
82,61,116,-1541,619,255553
-41,30,133,-1480,681,255589
-62,-23,153,-1515,671,255581
37,107,182,-1536,650,255531
12,63,177,-1561,657,255513
-88,90,78,-1550,663,255589
-3,72,310,-1442,654,255672
-211,96,65,-1518,657,255711
102,99,225,-1579,621,255614
-63,-42,112,-1540,691,255595
-40,17,122,-1642,633,255584
-28,19,241,-1542,642,255619
-181,29,164,-1528,605,255635
-31,92,279,-1638,544,255630
-141,88,134,-1530,667,255675
-68,-8,267,-1496,671,255616
-166,31,103,-1496,592,255573
-58,46,137,-1564,661,255672
-111,-24,66,-1539,619,255662
-45,-15,223,-1563,606,255534
-186,60,168,-1547,681,255567
-188,82,241,-1556,716,255501
-145,73,249,-1455,671,255597
-115,64,256,-1486,627,255725
-162,4,108,-1501,648,255656
-39,-17,160,-1559,646,255612
-127,-37,120,-1477,662,255652
-63,-9,204,-1461,679,255624
-173,46,179,-1461,681,255681
-63,62,239,-1491,642,255593
-103,55,232,-1511,627,255549
-82,2,332,-1524,662,255556
-77,44,202,-1493,630,255659
-24,77,227,-1534,699,255648
-108,7,103,-1464,662,255605
-34,78,124,-1556,560,255567
-15,126,144,-1517,686,255754
-72,131,97,-1493,629,255613
-1,118,207,-1553,626,255580
-54,102,148,-1525,610,255561
69,117,184,-1537,582,255563
0,34,147,-1463,606,255708
8,19,90,-1508,625,255637
115,74,163,-1513,653,255577
28,92,168,-1517,682,255514
-52,139,80,-1533,604,255600
95,129,105,-1585,693,255571
83,148,136,-1561,714,255509
-16,88,73,-1553,627,255619
82,18,178,-1524,578,255696
-8,-2,100,-1487,549,255596
114,30,214,-1564,656,255570
-62,30,72,-1466,713,255686
23,31,130,-1615,672,255604
12,98,114,-1546,660,255491
-47,51,178,-1472,658,255512
-35,25,167,-1542,627,255586
-10,-19,130,-1567,609,255653
-38,-72,52,-1547,754,255643
11,-30,108,-1565,715,255627
-87,-32,166,-1613,637,255608
-106,7,206,-1590,638,255610
-162,2,179,-1530,667,255646
-83,-73,205,-1572,599,255597
-142,-49,144,-1519,660,255545
-144,-86,112,-1526,678,255427
-119,-35,135,-1528,672,255507
-141,-26,155,-1499,633,255570
-163,20,128,-1578,692,255600
-247,15,147,-1519,576,255573
-172,19,156,-1587,546,255642
-179,40,172,-1552,624,255684
-228,-68,174,-1447,653,255532
-234,-48,138,-1488,637,255553
-167,-21,192,-1578,692,255485
-169,-35,99,-1541,615,255638
-198,26,145,-1573,648,255507
-233,51,100,-1511,677,255579
-140,33,198,-1564,684,255528
-177,23,151,-1503,658,255542
-161,28,111,-1467,691,255590
-118,-63,156,-1543,684,255651
-112,-46,118,-1556,667,255530
-89,-25,87,-1485,670,255671
-130,44,97,-1483,690,255610
-114,70,207,-1584,675,255600
-152,110,143,-1561,597,255646
-25,110,254,-1527,650,255646
-88,15,152,-1538,620,255521
-35,60,189,-1615,657,255608
34,-24,172,-1599,612,255535
-6,3,150,-1574,613,255523
15,146,148,-1576,616,255509
23,70,87,-1530,636,255550
100,189,192,-1442,606,255621
53,192,99,-1478,633,255646
71,116,60,-1470,669,255670
167,109,327,-1557,657,255509
27,18,-49,-1513,638,255526
231,117,156,-1586,610,255521
102,66,63,-1459,666,255686
97,19,55,-1524,717,255622
138,181,138,-1562,698,255559
210,58,165,-1458,641,255615
29,-28,44,-1483,698,255593
156,25,227,-1567,642,255614
67,-58,72,-1540,670,255694
113,36,127,-1582,664,255612
163,14,143,-1603,655,255546
43,-18,-124,-1578,653,255635
262,80,253,-1522,574,255547
-27,4,52,-1489,652,255544
44,-2,195,-1554,673,255531
115,17,226,-1464,706,255678
59,-109,-26,-1515,681,255539
235,4,214,-1542,685,255520
-3,-23,128,-1495,634,255640
-16,23,99,-1614,654,255683
156,139,315,-1556,586,255633
-32,31,104,-1565,595,255601
-6,1,26,-1491,669,255692
159,-31,223,-1503,604,255561
37,-56,159,-1557,636,255588
-19,63,118,-1538,629,255546
12,25,185,-1551,647,255577
-24,65,108,-1520,595,255580
66,126,240,-1485,618,255647
-86,157,62,-1550,600,255567
35,48,193,-1551,708,255636
15,-20,234,-1500,675,255602
-13,46,139,-1523,647,255541
24,24,148,-1586,616,255563
24,24,107,-1549,572,255657
-45,71,14,-1460,581,255568
83,146,196,-1481,627,255591
-38,87,149,-1488,640,255724
-73,-9,85,-1504,707,255640
62,45,242,-1558,661,255597
-38,63,66,-1484,633,255612
26,56,4,-1495,636,255710
102,89,94,-1535,655,255602
-34,110,-90,-1523,658,255586
191,166,78,-1551,690,255602
-28,138,-32,-1363,666,255698
102,48,240,-1472,639,255587
-27,52,150,-1487,571,255579
161,51,169,-1523,637,255537
121,70,99,-1497,709,255549
81,66,24,-1559,655,255521
118,160,59,-1528,640,255629
197,191,141,-1533,615,255616
103,148,70,-1451,632,255634
117,149,116,-1545,585,255582
189,70,208,-1532,635,255626
114,56,53,-1584,633,255592
246,76,208,-1543,680,255535
42,42,83,-1488,702,255652
160,117,112,-1541,653,255713
184,135,151,-1463,648,255640
36,108,-45,-1464,676,255608
221,76,264,-1498,603,255590
0,37,159,-1464,681,255668
164,26,315,-1650,669,255655
0,6,216,-1466,686,255662
26,-18,98,-1525,603,255541
71,90,86,-1570,674,255590
-16,97,111,-1500,576,255571
-72,56,102,-1520,668,255581
-66,101,198,-1493,638,255459
-72,72,184,-1478,680,255548
-77,58,210,-1527,639,255547
-136,74,98,-1508,629,255632
-84,52,167,-1538,597,255565
-163,122,92,-1523,660,255683
-42,169,198,-1526,638,255587
-246,160,73,-1556,652,255636
-105,135,242,-1563,619,255584
-201,156,233,-1432,621,255563
-200,143,210,-1447,705,255525
-211,105,179,-1488,670,255498
-194,114,188,-1544,590,255540
-218,163,72,-1507,630,255623
-182,214,83,-1527,699,255556
-157,134,159,-1484,663,255563
-248,115,158,-1543,650,255489
-151,126,267,-1566,690,255664
-202,52,174,-1532,662,255663
-156,76,175,-1542,687,255532
-175,90,23,-1472,662,255622
-135,135,52,-1471,635,255712
-135,159,43,-1522,644,255686
-132,64,210,-1491,671,255678
-173,59,170,-1504,592,255569
-6,48,283,-1551,649,255606
-188,10,137,-1472,646,255590
-74,10,151,-1577,678,255464
-119,72,125,-1463,681,255459
-74,78,143,-1575,676,255569
-99,125,48,-1531,634,255556
-70,128,113,-1501,638,255620
-93,69,124,-1502,663,255691
-5,73,347,-1524,650,255552
-121,39,138,-1513,681,255635
16,20,134,-1618,636,255561
-17,43,66,-1534,646,255556
-18,83,123,-1548,642,255571
-34,170,104,-1513,660,255642
16,86,164,-1566,701,255620
31,57,207,-1554,633,255648
8,72,208,-1513,644,255593
24,39,263,-1548,652,255555
-1,19,207,-1456,601,255537
-8,26,102,-1549,673,255641
44,88,32,-1481,686,255640
65,84,23,-1463,692,255621
27,76,108,-1541,647,255585
-31,33,198,-1532,557,255569
24,23,223,-1565,583,255574
-11,30,217,-1582,612,255581
-46,-14,234,-1623,603,255562
-48,11,263,-1512,635,255498
-3,104,185,-1539,617,255497
-58,117,128,-1537,635,255663
-83,89,193,-1490,678,255534
-52,99,189,-1529,603,255606
-50,69,238,-1491,668,255555
-100,4,227,-1501,763,255524
-117,27,246,-1482,651,255581
-152,54,260,-1479,548,255590
-129,126,193,-1547,577,255562
-143,153,122,-1531,665,255575
-129,138,163,-1506,672,255650
-196,114,155,-1519,601,255667
-127,107,265,-1473,664,255666
-209,21,149,-1465,614,255554
-151,-3,119,-1533,620,255543
-138,11,110,-1515,640,255495
-206,20,88,-1549,621,255541
-103,75,176,-1571,581,255578
-194,30,79,-1525,657,255617
-76,59,143,-1526,652,255580
-110,46,127,-1464,631,255625
-153,3,170,-1520,591,255596
-109,39,148,-1510,645,255526
-94,30,54,-1478,639,255598
-19,92,-1,-1563,610,255594
-62,84,-20,-1541,539,255506
-68,50,15,-1555,627,255589
45,57,203,-1512,665,255484
-57,3,152,-1529,611,255495
0,-16,129,-1574,587,255648
-61,-69,117,-1499,610,255658
48,4,230,-1519,665,255598
-40,106,84,-1512,636,255670
49,65,78,-1575,692,255489
117,18,138,-1505,637,255567
45,68,200,-1581,654,255620
85,29,210,-1586,632,255728
85,-56,329,-1555,696,255648
16,-16,193,-1503,598,255611
107,32,172,-1522,652,255579
85,23,228,-1452,694,255628
49,43,115,-1479,697,255570
57,94,172,-1530,690,255533
136,8,173,-1508,575,255539
102,36,211,-1571,646,255582
27,-46,170,-1531,618,255687
62,-71,296,-1563,615,255636
29,16,243,-1500,649,255554
62,0,170,-1505,589,255443
-69,47,60,-1496,737,255617
125,10,128,-1533,648,255526
-15,40,59,-1475,636,255575
-35,87,84,-1583,614,255674
-37,32,-12,-1502,629,255633
39,2,248,-1565,648,255636
-84,13,130,-1439,536,255541
-43,40,153,-1552,646,255535
-72,46,116,-1562,654,255650
-70,18,95,-1539,635,255519
-78,61,234,-1548,667,255593
-148,81,67,-1545,638,255684
-16,-14,92,-1546,645,255596
-113,-20,120,-1512,647,255728
-140,57,227,-1573,570,255523
-192,58,139,-1503,671,255704
-164,47,118,-1532,651,255618
-74,51,-2,-1498,609,255575
-44,34,42,-1559,639,255599
-117,20,149,-1519,663,255630
-149,-56,71,-1563,714,255601
-103,-3,217,-1555,727,255512
-177,39,97,-1514,616,255719
-112,24,110,-1524,654,255597
-132,49,117,-1528,676,255618
-5,21,123,-1561,605,255640
-91,0,104,-1557,732,255570
-58,-12,145,-1558,616,255574
-125,-71,121,-1566,653,255638
-60,-55,244,-1616,597,255597
-32,-39,319,-1522,631,255556
-119,-8,109,-1428,601,255668
49,35,171,-1489,652,255622
-9,26,199,-1482,667,255601
-9,25,159,-1518,581,255577
70,19,271,-1523,604,255584
-61,-49,38,-1468,622,255621
143,-56,241,-1606,695,255483
-40,-26,149,-1450,634,255620
63,6,237,-1478,638,255593
18,19,136,-1480,618,255548
144,29,136,-1550,657,255485
90,61,10,-1493,589,255587
121,72,97,-1561,638,255650
85,17,168,-1545,649,255681
63,48,180,-1595,576,255601
112,86,200,-1520,604,255546
11,34,83,-1503,643,255529
145,59,43,-1543,651,255540
134,104,7,-1542,643,255650
127,64,64,-1553,593,255621
124,56,121,-1486,662,255600
56,52,119,-1515,657,255534
134,35,209,-1541,650,255500
17,50,181,-1568,709,255593
0,69,169,-1506,696,255592
40,101,121,-1515,671,255629
77,76,131,-1486,644,255598
72,66,55,-1512,594,255629
60,57,21,-1654,686,255692
32,-1,174,-1547,721,255701
-43,50,238,-1473,652,255595
-69,104,229,-1565,587,255495
-37,25,208,-1535,603,255600
-43,86,160,-1556,622,255652
-11,140,90,-1566,689,255540
-44,76,102,-1598,665,255518
-50,86,176,-1516,669,255520
-116,60,129,-1550,639,255592
-26,9,217,-1577,707,255633
-81,55,120,-1553,629,255725
-93,106,241,-1524,723,255736
-83,20,191,-1512,687,255633
-13,42,76,-1523,644,255638
20,164,-78,-1533,591,255707
8,58,72,-1546,624,255652
-100,9,157,-1512,664,255669
33,119,124,-1565,618,255599
24,99,82,-1448,666,255668
10,21,142,-1530,616,255563
30,96,132,-1453,634,255699
82,101,85,-1497,641,255642
137,19,4,-1529,656,255616
91,36,-33,-1504,678,255634
70,74,8,-1455,673,255548
78,101,115,-1510,705,255559
69,49,129,-1550,685,255597
17,29,69,-1631,733,255614
158,80,38,-1536,648,255569
144,108,-29,-1490,641,255568
94,86,23,-1520,691,255689
136,40,152,-1499,623,255745
81,79,177,-1483,653,255628
81,130,66,-1458,659,255581
99,56,226,-1471,668,255604
-32,86,209,-1536,563,255593
114,223,239,-1527,671,255568
10,177,108,-1451,719,255632
112,77,84,-1487,618,255622
78,160,185,-1473,688,255514
-30,136,194,-1517,766,255585
35,63,227,-1547,668,255642
28,72,369,-1495,611,255502
-106,128,203,-1471,586,255702
40,194,266,-1535,630,255550
16,108,140,-1494,629,255527
-35,157,-42,-1538,638,255504
53,203,47,-1559,652,255643
-3,127,237,-1540,650,255620
-68,81,248,-1575,550,255583
-58,165,231,-1442,641,255668
-92,104,191,-1552,681,255566
-5,106,184,-1521,577,255562
-46,86,274,-1459,679,255585
-119,38,-61,-1538,675,255642
56,111,91,-1493,665,255578
-92,48,108,-1508,698,255603
-188,37,169,-1598,626,255551
-123,66,247,-1513,640,255508
-179,1,116,-1496,650,255491
-85,29,120,-1522,669,255549
-150,-1,39,-1559,665,255594
-66,27,171,-1502,633,255563
-237,34,130,-1511,601,255600
-138,-9,27,-1477,653,255524
-92,17,23,-1490,638,255543
-234,123,-4,-1524,648,255623
-135,97,394,-1573,719,255597
-321,22,133,-1501,730,255551
-18,123,203,-1596,669,255633
-196,163,-60,-1488,644,255682
-52,-33,177,-1484,627,255670
-170,20,215,-1597,667,255606
-151,150,9,-1577,621,255625
-27,73,245,-1523,678,255645
-227,40,268,-1473,603,255578
-108,98,303,-1560,629,255511
-84,174,175,-1523,684,255561
4,15,64,-1536,669,255512
2,71,212,-1551,671,255573
-114,128,119,-1668,615,255596
42,114,238,-1622,687,255632
-127,113,146,-1534,719,255583
-31,100,258,-1552,644,255659
-43,100,309,-1474,664,255602
52,41,194,-1519,627,255758
15,61,60,-1509,630,255688
71,87,96,-1557,637,255551
72,40,251,-1613,651,255638
-53,158,212,-1583,551,255527
-26,106,111,-1579,583,255549
-53,135,179,-1426,626,255504
16,162,424,-1431,570,255611
-81,123,298,-1509,666,255662
-12,21,94,-1555,634,255569
71,43,-62,-1510,610,255627
-1,169,316,-1426,694,255632
-234,131,312,-1530,720,255627
-121,114,415,-1584,608,255698
-152,261,90,-1533,670,255749
15,233,-1,-1564,690,255578
-92,160,199,-1543,687,255625
-105,100,135,-1547,577,255495
-36,136,279,-1558,575,255537
-113,50,-80,-1433,663,255609
55,-41,83,-1503,697,255648
-168,59,122,-1460,669,255661
-82,46,245,-1555,661,255533
-144,90,217,-1519,643,255534
-26,100,164,-1457,588,255560
-181,72,20,-1551,590,255596
-41,8,101,-1557,584,255656
-96,-169,-18,-1445,620,255561
-90,-45,-2,-1536,622,255464
-80,-106,133,-1469,655,255607
-262,-123,171,-1547,683,255652
-23,15,304,-1559,619,255565
-179,-86,214,-1510,664,255651
-114,-18,32,-1563,620,255541
119,-46,220,-1498,673,255559
-208,-54,-18,-1521,641,255536
79,11,130,-1582,607,255621
-177,-55,114,-1485,684,255681
-96,13,175,-1602,676,255464
-21,82,265,-1493,660,255541
-95,-11,276,-1530,676,255654
-26,-26,220,-1558,636,255651
-11,40,86,-1479,668,255670
69,11,36,-1462,672,255686
-24,29,46,-1517,688,255655
-13,37,169,-1509,714,255603
-42,0,159,-1468,605,255563
100,38,262,-1504,601,255571
-45,46,55,-1450,662,255631
26,-1,82,-1612,622,255612
188,-17,138,-1459,605,255547
50,-6,27,-1429,609,255599
125,6,97,-1474,614,255484
50,5,179,-1445,591,255588
23,57,157,-1537,614,255599
111,122,156,-1473,624,255540
8,3,126,-1508,583,255586
116,-10,90,-1598,628,255538
32,37,203,-1542,692,255535
-38,-6,74,-1571,714,255500
106,13,211,-1590,618,255540
-80,30,134,-1562,561,255613
50,116,272,-1614,603,255552
-40,136,231,-1508,659,255607
12,89,247,-1474,583,255523
-10,148,107,-1536,623,255545
88,104,184,-1597,607,255657
-25,53,95,-1559,592,255795
-23,56,136,-1556,566,255663
-40,62,101,-1562,655,255623
1,49,258,-1548,637,255564
-76,38,170,-1476,716,255512
-37,4,202,-1586,642,255568
-66,-23,-14,-1583,657,255592
62,3,78,-1522,624,255649
-162,-16,-27,-1508,682,255533
-55,-29,100,-1625,642,255421
-92,3,123,-1565,666,255648
-121,12,57,-1539,627,255624
-10,51,160,-1577,690,255662
-99,-19,211,-1589,628,255601
-119,-39,168,-1598,647,255601
-30,-45,168,-1571,683,255629
-57,-97,0,-1501,685,255530
-68,-50,-28,-1525,673,255463
-69,-67,172,-1543,575,255573
-130,-4,286,-1543,625,255657
-109,18,232,-1663,692,255591
-62,-29,197,-1473,715,255620
-90,-48,135,-1513,642,255593
-15,-29,98,-1541,657,255516
-9,-71,153,-1549,680,255582
-82,-63,90,-1547,618,255598
66,44,207,-1581,615,255524
-82,85,133,-1469,717,255707
20,103,148,-1569,594,255562
35,77,189,-1531,627,255646
-3,28,188,-1541,652,255635
99,43,194,-1507,634,255696
26,5,64,-1485,644,255647
87,4,94,-1554,641,255547
43,43,130,-1524,734,255625
45,88,186,-1500,691,255511
36,102,147,-1512,662,255596
105,79,222,-1530,672,255628
43,73,190,-1507,674,255572
86,145,146,-1546,637,255462
136,103,121,-1539,665,255618
-48,104,3,-1517,623,255511
115,145,109,-1550,607,255568
-21,160,90,-1548,629,255508
-20,149,110,-1539,609,255522
27,145,161,-1493,625,255524
-36,70,119,-1490,550,255583
55,78,145,-1578,593,255449
-57,84,33,-1486,611,255533
-6,70,57,-1470,602,255557
-23,107,90,-1533,651,255640
-48,154,128,-1596,683,255596
-9,199,195,-1563,662,255561
-77,97,120,-1500,639,255565
44,71,223,-1513,672,255540
-48,101,92,-1434,635,255577
3,36,106,-1527,619,255540
-21,74,147,-1536,658,255614
-11,62,201,-1532,601,255548
-70,86,198,-1509,615,255672
-52,101,197,-1515,686,255613
-63,70,226,-1536,647,255597
-78,36,249,-1469,603,255630
-39,-40,258,-1554,596,255508
-47,-56,107,-1568,650,255471
-23,-75,61,-1544,575,255435
8,-39,204,-1505,602,255555
-112,56,161,-1521,629,255579
-31,54,130,-1632,618,255593
-4,-56,190,-1530,660,255636
-51,-44,75,-1504,625,255659
32,48,112,-1561,684,255598
-57,-39,54,-1489,656,255584
-12,-27,-67,-1538,600,255553
79,101,46,-1591,580,255584
-48,8,4,-1609,633,255573
-19,51,39,-1589,663,255570
68,74,230,-1492,757,255615
-28,-11,183,-1577,645,255609
25,111,186,-1539,702,255494
73,11,44,-1498,713,255593
61,48,-8,-1581,626,255641
178,194,127,-1535,637,255502
16,94,11,-1502,646,255657
108,145,197,-1577,648,255585
138,119,155,-1460,648,255542
103,94,61,-1496,646,255501
196,147,205,-1545,676,255545
67,44,77,-1481,622,255590
115,151,69,-1534,660,255606
180,259,177,-1460,629,255593
-11,211,18,-1473,644,255570
123,266,352,-1648,705,255672
-5,190,228,-1479,692,255647
38,152,228,-1548,657,255603
4,211,281,-1539,594,255648
45,68,163,-1535,574,255572
40,143,141,-1502,634,255569
75,216,173,-1575,640,255653
-47,235,92,-1489,661,255691
2,325,310,-1578,604,255647
-30,247,123,-1526,672,255653
47,199,166,-1475,695,255513
18,197,198,-1448,691,255522
-50,98,39,-1498,641,255576
2,146,129,-1556,638,255620
-34,166,121,-1589,551,255564
-178,184,14,-1585,616,255639
-60,208,211,-1523,621,255617
-115,138,216,-1556,609,255607
-147,99,88,-1511,687,255600
-112,132,54,-1559,609,255566
-202,81,-114,-1578,679,255481
-42,42,68,-1562,577,255463
-191,123,135,-1555,676,255483
-168,123,-62,-1521,726,255537
-65,112,71,-1542,689,255652
-121,68,100,-1522,602,255681
-147,48,132,-1585,574,255619
-99,-17,309,-1588,607,255581
-135,-57,75,-1525,660,255596
25,-71,165,-1479,663,255620
-70,-44,91,-1469,603,255533
-71,-10,217,-1533,595,255419
-139,-11,312,-1574,637,255569
-80,-73,390,-1575,708,255573
-154,-124,226,-1547,668,255538
-20,-127,342,-1506,629,255551
-159,-137,217,-1420,591,255629
-31,-130,248,-1496,641,255536
-50,-46,161,-1552,691,255663
-99,15,125,-1522,646,255566
2,43,284,-1484,653,255513
-35,44,383,-1515,590,255539
-66,-7,213,-1567,602,255596
29,-9,245,-1529,623,255469
-78,-35,141,-1565,579,255567
39,-6,296,-1541,675,255590
-40,46,271,-1427,606,255708
-37,94,120,-1515,638,255519
5,94,112,-1511,677,255483
72,90,199,-1495,652,255463
-84,119,152,-1471,652,255587
-44,64,143,-1538,714,255627
-5,19,166,-1525,665,255674
-53,110,96,-1556,638,255600
-23,155,64,-1575,702,255444
-101,133,61,-1536,696,255529
-17,168,73,-1607,719,255659
-48,181,110,-1539,743,255580
-117,85,77,-1512,635,255573
16,79,52,-1546,656,255515
-75,51,70,-1531,677,255566
-55,88,-26,-1545,615,255514
29,155,89,-1525,665,255571
-183,156,-89,-1539,663,255570
29,209,98,-1602,669,255563
-96,199,81,-1507,693,255653
-69,101,119,-1496,691,255611
-99,63,164,-1561,665,255600
-76,28,192,-1512,631,255622
-68,73,217,-1557,614,255694
-85,106,170,-1462,630,255659
-119,91,177,-1462,671,255696
-97,193,205,-1605,644,255632
-55,132,240,-1559,644,255509
-144,72,282,-1525,641,255559
-100,11,259,-1622,647,255594
-107,-35,247,-1563,525,255541
-105,-30,160,-1596,547,255640
-54,-29,142,-1548,654,255505
-157,10,143,-1522,684,255605
-38,31,237,-1540,618,255614
-111,35,234,-1531,683,255560
-95,-14,174,-1574,658,255560
-102,-122,161,-1567,644,255569
-92,-105,112,-1567,580,255566
-30,-145,136,-1560,618,255626
-121,-111,68,-1576,634,255635
6,-81,192,-1571,619,255668
-102,-42,135,-1523,602,255566
-23,-43,171,-1527,621,255496
-75,-141,164,-1513,659,255539
-96,-144,146,-1575,596,255619
-11,-109,148,-1547,629,255701
-59,-131,100,-1513,658,255599
4,-61,102,-1614,656,255559
-51,3,64,-1552,707,255602
36,11,181,-1461,680,255647
3,6,219,-1472,653,255697
-56,6,197,-1518,638,255507
21,-82,204,-1490,667,255579
-13,-116,147,-1511,648,255541
57,-29,94,-1580,652,255526
58,-18,166,-1556,738,255569
-71,-65,74,-1457,587,255588
89,52,115,-1535,607,255558
16,5,33,-1428,669,255582
51,-92,138,-1584,663,255613
-3,-68,105,-1488,679,255617
43,-51,69,-1470,723,255487
61,-49,92,-1340,649,255549
32,-37,209,-1389,651,255548
-43,112,195,-1574,614,255580
21,97,103,-1546,671,255651
83,8,37,-1454,604,255680
-15,52,40,-1515,596,255655
-30,61,191,-1503,631,255521
-12,23,417,-1562,693,255601
-69,30,262,-1559,621,255651
32,114,84,-1634,720,255465
-5,73,-41,-1473,664,255477
70,70,101,-1532,603,255571
-28,181,210,-1551,722,255587
-110,44,133,-1510,691,255580
3,-11,70,-1544,655,255567
15,12,83,-1559,655,255604
-10,56,87,-1506,667,255569
-90,119,170,-1560,688,255581
-64,129,124,-1508,646,255584
-37,248,68,-1565,655,255483
-48,167,130,-1582,638,255559
-116,59,210,-1534,672,255531
-128,52,188,-1544,625,255589
-52,45,174,-1481,591,255626
-110,4,22,-1464,588,255548
-30,7,105,-1525,586,255599
-99,106,134,-1586,617,255471
-22,140,217,-1549,644,255589
7,84,169,-1522,645,255606
-6,38,156,-1523,602,255433
8,9,149,-1604,631,255545
12,-10,191,-1590,677,255557
-35,-69,148,-1545,608,255540
-10,-7,143,-1528,641,255707
0,63,211,-1520,612,255660
29,126,224,-1468,580,255625
16,151,141,-1524,657,255575
48,39,94,-1541,648,255649
39,-7,151,-1554,596,255578
-12,-21,189,-1507,649,255637
0,-28,199,-1467,556,255610
-42,-41,192,-1540,576,255622
-15,28,141,-1532,638,255683
13,116,100,-1535,643,255646
36,25,103,-1462,591,255501
8,4,67,-1450,606,255527
54,5,90,-1458,559,255701
65,-15,139,-1549,642,255682
15,-58,57,-1613,589,255614
100,23,7,-1536,634,255557
83,84,-43,-1528,706,255495
91,101,18,-1528,695,255586
47,93,161,-1566,617,255562
26,-18,162,-1528,606,255507
89,48,235,-1496,591,255615
117,-62,199,-1588,578,255527
86,-103,144,-1559,572,255525
12,37,100,-1560,583,255549
43,27,-80,-1518,618,255599
174,183,143,-1614,656,255561
39,140,37,-1580,723,255585
103,86,86,-1525,636,255484
116,213,274,-1478,629,255566
120,118,130,-1615,676,255576
75,233,139,-1545,652,255531
78,274,113,-1514,675,255448
89,245,28,-1537,695,255572
86,440,274,-1583,664,255693
49,335,78,-1522,621,255670
59,257,123,-1545,683,255644
57,270,150,-1481,683,255640
-12,90,85,-1464,654,255499
-123,150,138,-1496,666,255629
-38,186,310,-1504,650,255575
-159,238,54,-1407,659,255553
83,316,330,-1528,651,255524
-92,202,130,-1465,626,255576
-28,180,184,-1565,665,255540
8,225,339,-1446,611,255659
-138,84,60,-1550,638,255632
41,64,217,-1544,641,255575
-18,86,236,-1578,667,255603
-59,69,104,-1540,585,255575
36,175,296,-1520,629,255559
-100,79,97,-1554,677,255565
-74,15,69,-1542,654,255463
35,94,221,-1605,604,255565
-59,-23,77,-1558,610,255603
-94,-49,154,-1531,605,255682
-41,41,160,-1525,567,255562
-136,137,-35,-1530,678,255584
-6,142,139,-1533,680,255602
-62,88,120,-1487,652,255602
-68,95,75,-1584,721,255514
41,39,183,-1567,676,255568
-142,-8,-22,-1551,672,255600
39,-30,170,-1604,687,255529
-71,4,170,-1460,660,255556
-88,6,100,-1527,702,255538
40,17,199,-1603,674,255586
-87,28,81,-1559,623,255615
21,0,179,-1490,607,255588
-33,-30,307,-1463,634,255531
-125,-87,160,-1481,565,255653
-82,-86,155,-1574,643,255713
-105,9,81,-1497,651,255550
-107,68,79,-1535,726,255586
-132,72,146,-1549,661,255611
-110,95,147,-1508,630,255562
-94,129,195,-1504,614,255654
-91,68,231,-1501,621,255601
-169,53,99,-1533,580,255571
-77,116,210,-1563,678,255562
-117,98,160,-1536,644,255587
-129,152,315,-1559,659,255578
-98,204,187,-1613,723,255570
-58,217,114,-1513,702,255390
-57,159,149,-1422,625,255452
-45,159,186,-1526,624,255591
-136,165,151,-1556,694,255661
-87,126,173,-1496,616,255658
-107,189,103,-1457,658,255677
-43,268,194,-1524,627,255547
-194,275,97,-1518,626,255578
-13,261,265,-1527,716,255571
-137,241,198,-1476,633,255548
-68,123,232,-1636,536,255504
-59,109,124,-1490,593,255520
-110,125,-15,-1597,708,255525
-51,17,72,-1525,689,255646
15,72,359,-1518,599,255558
-204,196,41,-1544,577,255649
15,90,186,-1516,717,255617
-35,-15,231,-1542,623,255595
12,151,103,-1517,603,255557
-68,119,88,-1480,728,255557
-105,-58,1,-1603,576,255603
31,70,134,-1601,569,255615
-103,149,96,-1538,645,255704
-46,85,243,-1533,613,255647
-109,50,59,-1500,613,255501
85,14,120,-1527,710,255541
-36,54,182,-1500,692,255607
-23,11,217,-1549,670,255620
-39,-34,221,-1519,699,255558
-58,-78,106,-1532,641,255619
70,48,170,-1605,690,255666
-43,77,192,-1569,616,255720
35,-76,237,-1630,673,255715
97,-16,217,-1568,616,255619
15,-19,-39,-1505,664,255602
102,-111,161,-1467,745,255537
-45,-79,137,-1515,686,255534
56,-45,199,-1579,637,255541
-9,-42,183,-1592,609,255681
12,-90,44,-1495,554,255619
61,-40,158,-1470,626,255624
36,-98,330,-1516,651,255696
-7,-82,215,-1537,613,255603
8,-29,23,-1563,696,255638
78,-144,26,-1452,683,255594
4,-20,98,-1486,620,255596
-8,50,231,-1517,654,255633
-83,35,189,-1514,621,255606
20,62,82,-1504,681,255511
55,23,-17,-1490,654,255555
28,11,111,-1586,602,255526
-7,-4,156,-1510,636,255585
-111,41,195,-1522,665,255635
-12,35,190,-1558,648,255474
-88,87,70,-1539,609,255441
-7,104,174,-1541,653,255533
-77,70,213,-1607,729,255627
0,19,203,-1581,591,255596
-66,40,-2,-1506,676,255651
-15,-56,50,-1647,665,255594
-89,-15,103,-1533,621,255640
36,9,373,-1563,657,255769
-204,31,96,-1561,604,255643
22,63,187,-1539,677,255484
-100,90,54,-1480,653,255690
14,77,207,-1621,611,255561
-117,32,108,-1483,580,255564
-28,13,128,-1533,509,255645
-17,-20,32,-1437,609,255663
-3,-49,244,-1536,559,255616
-96,44,180,-1484,650,255628
-22,54,262,-1579,654,255680
-40,-21,123,-1532,622,255658
87,-15,258,-1532,620,255642
-33,84,19,-1491,642,255661
120,-46,308,-1554,714,255567
-142,-107,-68,-1494,644,255557
276,15,361,-1571,601,255537
-182,22,-58,-1470,697,255667
162,-49,257,-1559,692,255454
23,8,136,-1413,659,255640
77,-27,152,-1519,614,255623
59,-43,125,-1538,609,255659
13,-56,172,-1463,567,255508
27,-31,142,-1532,674,255524
59,15,141,-1562,697,255613
-47,-56,39,-1535,679,255635
45,33,109,-1479,554,255598
19,-21,81,-1488,644,255572
64,-45,129,-1576,630,255607
0,15,-34,-1550,598,255575
52,-61,68,-1485,647,255527
-82,-31,26,-1495,692,255572
77,15,239,-1544,616,255579
-211,64,-33,-1519,618,255684
50,-21,178,-1584,664,255459
56,-44,217,-1429,643,255696
-130,139,31,-1483,614,255590
23,-51,57,-1513,641,255584
60,-22,159,-1495,616,255735
-147,71,26,-1476,546,255597
-2,-6,203,-1549,690,255672
-67,-132,292,-1527,614,255588
-141,99,-21,-1586,560,255543
98,142,254,-1545,687,255597
-161,-81,24,-1590,636,255600
111,44,264,-1573,596,255510
-128,56,58,-1388,677,255644
-23,-28,270,-1571,675,255737
11,15,312,-1563,637,255602
-204,83,94,-1546,685,255675
1,79,321,-1572,691,255553
-174,6,161,-1472,624,255535
-103,30,175,-1581,648,255424
-43,50,131,-1479,722,255637
-247,-32,-68,-1573,674,255618
61,58,263,-1572,614,255616
-252,63,116,-1430,588,255681
-88,107,109,-1720,555,255641
-54,86,365,-1518,709,255563
-301,30,-37,-1609,603,255536
108,187,334,-1600,669,255544
-199,19,48,-1355,643,255773
-61,19,146,-1523,623,255608
-128,192,71,-1469,664,255609
-39,19,141,-1608,666,255561
-145,116,234,-1482,617,255738
-41,71,321,-1579,596,255617
-178,39,37,-1538,660,255615
82,67,203,-1491,689,255546
-127,-130,-139,-1456,658,255739
8,151,129,-1609,622,255549
16,104,8,-1456,664,255680
-112,57,6,-1539,670,255519
64,134,345,-1592,562,255525
-154,-8,208,-1475,639,255606
-1,44,172,-1638,657,255636
83,-53,47,-1355,680,255693
-168,39,-72,-1477,661,255613
115,163,212,-1566,661,255587
-66,34,355,-1501,653,255587
-30,118,285,-1545,651,255710
114,37,210,-1484,637,255667
-14,30,-53,-1495,627,255615
202,98,82,-1544,708,255544
-54,96,75,-1560,689,255544
104,79,105,-1559,654,255516
103,58,64,-1574,658,255511
102,119,99,-1565,657,255582
68,122,146,-1552,640,255652
-24,136,212,-1566,702,255618
2,194,106,-1519,679,255582
31,110,239,-1579,696,255620
-1,104,222,-1612,717,255608
-27,82,237,-1632,664,255606
-15,107,154,-1522,656,255592
-14,86,42,-1480,555,255516
-56,36,23,-1551,589,255609
-7,84,133,-1549,590,255612
-20,148,222,-1576,655,255653
114,186,245,-1546,716,255644
53,130,254,-1556,674,255743
42,136,102,-1541,602,255672
187,149,199,-1463,693,255625
-18,97,74,-1454,636,255656
89,169,223,-1537,626,255577
-105,175,274,-1518,643,255560
26,209,394,-1543,704,255515
-2,236,186,-1437,684,255522
37,148,56,-1421,660,255497
89,150,-53,-1501,627,255646
93,155,135,-1514,693,255598
-28,157,124,-1551,623,255633
22,199,217,-1538,655,255661
-64,223,83,-1468,615,255672
8,178,61,-1579,625,255525
92,146,25,-1553,636,255648
82,112,166,-1471,591,255533
-64,95,126,-1510,596,255594
138,88,288,-1529,676,255640
-40,113,174,-1474,684,255603
-28,154,98,-1594,649,255550
23,191,208,-1504,617,255652
-63,85,218,-1456,635,255616
-28,82,205,-1554,662,255494
-36,99,194,-1520,610,255550
-101,16,88,-1499,554,255405
5,92,91,-1499,700,255547
-55,109,67,-1511,673,255608
-76,89,112,-1534,657,255596
-64,28,119,-1515,630,255574
-73,68,35,-1516,595,255589
-21,134,-66,-1617,673,255701
-45,66,-169,-1573,750,255607
38,83,8,-1537,668,255575
-25,115,96,-1484,667,255575
-4,135,197,-1511,718,255568
9,142,222,-1503,689,255669
-76,136,203,-1506,637,255638
-56,175,233,-1507,697,255552
-67,94,158,-1588,649,255549
-77,63,6,-1544,639,255699
-26,43,80,-1507,629,255630
-70,22,148,-1505,614,255585
-149,90,228,-1590,602,255628
-174,78,247,-1543,685,255656
-162,101,183,-1537,655,255706
-128,156,58,-1524,612,255575
-63,112,5,-1588,689,255640
-88,78,135,-1528,649,255603
-33,63,367,-1578,653,255623
-76,70,326,-1524,603,255535
-13,76,179,-1524,611,255534
-27,64,13,-1478,628,255476
-46,95,159,-1466,598,255619
-94,117,410,-1540,662,255654
-135,121,458,-1588,709,255666
-110,73,273,-1467,632,255618
-45,36,96,-1517,667,255551
-26,65,106,-1501,575,255572
-117,103,3,-1613,630,255574
-63,103,153,-1537,592,255569
-82,89,322,-1552,608,255607
-130,104,340,-1579,605,255651
-30,63,395,-1602,648,255581
-104,-29,208,-1507,657,255610
51,-6,131,-1529,597,255526
53,-18,-1,-1476,650,255565
65,-28,39,-1521,571,255516
20,41,175,-1509,630,255564
-36,8,212,-1569,697,255638
-20,63,252,-1566,714,255620
-76,98,121,-1557,670,255557
-2,-23,38,-1580,654,255600
30,39,24,-1520,632,255664
54,6,-58,-1433,670,255651
-36,85,-80,-1527,693,255559
-61,84,73,-1507,652,255392
-82,42,119,-1543,560,255590
-23,155,169,-1518,563,255614
56,-7,13,-1532,692,255474
66,-55,-66,-1465,618,255492
60,35,139,-1470,622,255561
-23,-33,152,-1547,646,255655
-52,-19,136,-1590,680,255544
0,71,163,-1580,599,255503
-102,48,130,-1520,653,255543
-146,82,230,-1553,696,255573
-67,49,218,-1594,610,255595
-133,-36,87,-1500,678,255699
-54,50,217,-1521,653,255607
-160,-42,134,-1475,655,255616
-203,-27,156,-1479,602,255638
-155,99,225,-1486,553,255527
-216,11,59,-1478,645,255612
-117,69,379,-1588,571,255602
-174,-31,354,-1495,580,255636
-155,-71,260,-1522,621,255523
-28,42,368,-1583,663,255507
-166,-95,36,-1422,623,255671
-72,12,133,-1524,691,255555
-77,41,143,-1488,692,255589
-171,-16,133,-1442,648,255640
-57,97,396,-1550,735,255587
-194,-7,323,-1522,600,255710
-214,-57,125,-1515,584,255620
74,-34,174,-1525,676,255677
-55,-53,-82,-1492,637,255456
10,-80,-88,-1475,607,255501
69,-4,121,-1465,624,255545
-103,123,41,-1479,655,255571
54,79,232,-1573,685,255553
-15,32,154,-1500,602,255602
71,-23,-13,-1484,624,255652
199,-51,101,-1544,691,255485
64,-84,-23,-1517,595,255595
126,-85,68,-1517,635,255605
111,5,96,-1506,652,255591
92,28,144,-1397,698,255573
59,59,210,-1514,619,255674
149,21,174,-1541,673,255598
155,-41,12,-1484,607,255576
262,23,-32,-1600,630,255595
197,-29,-77,-1543,656,255636
135,-108,-16,-1563,643,255736
250,-15,97,-1574,603,255668
156,54,114,-1452,579,255602
201,-43,120,-1498,625,255632
245,-33,195,-1465,643,255513
135,-44,166,-1462,580,255530
219,-53,180,-1487,664,255552
119,-82,57,-1480,713,255536
155,-106,-21,-1539,657,255567
107,-38,67,-1525,669,255652
56,3,221,-1535,696,255610
-26,39,289,-1517,642,255652
25,-21,263,-1551,622,255560
39,-79,200,-1471,618,255514
48,-39,150,-1492,712,255524
19,-77,139,-1537,702,255591
-20,-60,199,-1529,691,255632
-24,12,158,-1495,661,255527
-18,36,153,-1523,750,255647
-49,8,385,-1496,762,255627
-175,23,233,-1498,679,255589
-5,-29,387,-1586,696,255525
-114,-109,131,-1481,697,255515
-12,-60,94,-1464,585,255525
-103,-43,59,-1472,651,255627
-73,-3,141,-1463,722,255478
-163,116,142,-1474,691,255544
-176,98,177,-1507,655,255601
-153,14,177,-1566,600,255610
-76,48,214,-1456,618,255591
-137,33,96,-1498,646,255606
-88,-10,34,-1570,703,255628
-110,8,-4,-1520,635,255599
-143,80,-13,-1584,664,255567
-93,116,133,-1634,651,255614
-160,157,179,-1629,655,255593
-176,140,163,-1587,685,255579
-51,111,186,-1468,671,255655
-131,47,88,-1455,665,255563
-103,74,-24,-1515,698,255474
-62,48,-84,-1442,692,255566
-13,52,29,-1534,564,255674
-98,108,55,-1504,609,255573
-122,116,143,-1504,595,255528
-44,80,201,-1500,625,255650
-25,61,245,-1465,617,255613
-8,78,166,-1518,604,255571
18,53,79,-1564,659,255644
-4,39,-3,-1541,552,255533
54,126,26,-1497,622,255602
12,123,81,-1531,653,255658
15,158,246,-1551,631,255594
-22,109,288,-1550,587,255551
79,108,354,-1589,661,255544
12,57,160,-1509,696,255606
58,8,164,-1519,620,255594
14,48,79,-1490,554,255613
72,89,203,-1529,572,255578
-51,157,161,-1471,638,255675
-1,175,325,-1531,634,255529
-65,150,317,-1498,709,255709
-26,100,326,-1549,622,255696
-11,35,184,-1558,687,255595
-8,-14,123,-1489,627,255463
-81,6,80,-1567,587,255514
-28,61,128,-1578,697,255546
-70,91,254,-1561,695,255592
-149,104,246,-1567,610,255548
-32,156,248,-1600,655,255631
-75,88,141,-1550,705,255613
-73,16,47,-1506,553,255532
-85,-20,94,-1551,554,255502
-83,-8,117,-1555,621,255644
-105,81,96,-1596,652,255569
-133,128,171,-1584,594,255611
-193,135,202,-1540,663,255621
-174,126,251,-1580,700,255663
-112,126,264,-1461,634,255637
-152,63,160,-1548,663,255536
-158,14,17,-1617,653,255547
-123,95,13,-1523,684,255639
-136,206,9,-1543,711,255721
-101,219,149,-1521,660,255666
-214,185,144,-1538,611,255674
-79,221,214,-1571,590,255633
-115,144,247,-1485,611,255734
-137,55,254,-1476,722,255586
-97,119,157,-1489,648,255598
-32,157,51,-1461,665,255598
-19,176,87,-1445,636,255668
-121,225,150,-1495,680,255643
-124,227,283,-1548,636,255434
-90,211,306,-1531,608,255510
-46,136,236,-1534,630,255539
-50,108,193,-1499,666,255544
-5,100,119,-1484,663,255553
24,145,74,-1467,660,255584
34,121,18,-1471,613,255697
98,117,33,-1569,586,255614
50,172,184,-1563,609,255601
32,159,201,-1573,584,255664
136,124,211,-1614,676,255674
152,124,79,-1523,607,255614
155,70,15,-1502,664,255488
109,39,19,-1547,679,255600
111,50,108,-1505,639,255560
49,76,128,-1554,662,255612
9,96,81,-1555,655,255640
118,156,175,-1479,691,255538
36,164,185,-1489,711,255569
49,26,261,-1546,646,255619
10,-56,137,-1522,594,255723
122,-37,63,-1483,658,255680
73,21,30,-1425,620,255625
26,87,108,-1451,674,255603
3,118,207,-1491,595,255678
39,97,278,-1480,684,255735
23,42,239,-1534,662,255606
-32,-75,184,-1592,658,255612
23,-55,225,-1555,687,255564
-51,-10,183,-1411,585,255632
-47,25,83,-1537,658,255562
-77,75,160,-1582,581,255586
-154,84,143,-1546,612,255600
-31,150,305,-1606,603,255607
-112,11,216,-1417,584,255539
-95,-42,166,-1495,603,255575
-32,-32,211,-1584,612,255594
-135,-7,-47,-1568,689,255584
-47,150,-58,-1552,727,255565
-27,127,-26,-1501,672,255658
-49,215,163,-1635,688,255557
-19,195,398,-1478,695,255600
-182,94,119,-1513,652,255592
12,148,160,-1578,601,255497
-102,39,-55,-1418,669,255554
-62,54,94,-1499,698,255638
-103,181,166,-1544,660,255622
-96,139,97,-1584,651,255584
-72,264,197,-1594,715,255577
-57,309,105,-1484,676,255629
-138,198,73,-1513,678,255568
-146,159,137,-1557,683,255612
-48,52,119,-1548,681,255601
-126,96,-63,-1470,668,255548
50,139,-60,-1495,678,255442
-27,78,-59,-1533,667,255565
-97,203,158,-1533,621,255673
-12,130,345,-1569,674,255471
-124,23,172,-1545,685,255640
126,57,328,-1587,684,255610
-42,-16,24,-1466,672,255512
151,30,206,-1519,664,255662
9,131,66,-1531,650,255626
0,54,104,-1485,679,255565
68,86,291,-1559,643,255591
41,125,293,-1538,635,255635
23,81,190,-1519,667,255568
152,55,300,-1633,655,255509
68,31,222,-1486,632,255635
46,44,90,-1503,683,255623
157,38,231,-1517,684,255605
12,17,56,-1487,628,255551
161,29,230,-1544,747,255615
148,31,307,-1486,693,255587
-27,17,138,-1499,645,255664
119,-23,285,-1538,717,255567
65,-51,170,-1557,695,255637
73,-25,116,-1521,637,255589
73,-48,104,-1498,610,255537
-57,-89,96,-1514,626,255587
47,30,196,-1512,704,255666
-13,143,188,-1497,760,255638
-107,-65,167,-1513,621,255653
3,-97,192,-1538,586,255540
-123,-62,28,-1504,652,255628
-113,-106,-75,-1516,659,255590
-43,-88,102,-1572,645,255525
-203,-19,-61,-1523,615,255591
-22,5,234,-1572,681,255602
-163,-58,248,-1501,653,255575
-95,-44,104,-1579,550,255625
-51,-73,67,-1510,668,255650
-63,-155,86,-1451,627,255606
-8,-30,216,-1473,610,255554
-155,-6,-14,-1566,699,255650
-26,-44,24,-1520,649,255616
-60,103,109,-1486,620,255499
-139,74,-12,-1544,702,255566
-29,-61,292,-1549,677,255581
-192,-101,31,-1466,582,255589
65,25,122,-1582,620,255566
-77,-5,4,-1479,599,255600
-63,-48,-78,-1489,604,255538
-22,146,115,-1519,637,255565
-61,132,117,-1510,605,255675
16,105,137,-1590,692,255673
53,62,243,-1506,665,255672
-57,-34,98,-1572,640,255698
104,10,239,-1618,652,255564
-3,-85,105,-1366,634,255631
-44,36,13,-1589,606,255589
93,131,27,-1546,627,255595
61,41,134,-1548,623,255606
40,131,156,-1497,586,255533
142,43,308,-1474,693,255608
-5,-86,203,-1542,687,255674
211,-101,320,-1536,616,255603
11,-93,107,-1543,644,255585
158,-70,128,-1543,661,255528
126,-64,159,-1470,671,255522
75,126,206,-1533,690,255610
154,97,274,-1493,687,255516
59,6,196,-1495,609,255586
190,70,154,-1521,551,255601
127,43,149,-1476,627,255581
96,24,172,-1537,672,255542
89,58,125,-1620,619,255493
47,57,77,-1561,580,255498
95,51,135,-1523,610,255615
9,24,189,-1595,624,255638
-9,58,271,-1543,670,255607
-4,-8,202,-1533,614,255582
114,-20,181,-1507,673,255512
-76,8,46,-1508,679,255552
-45,-35,105,-1570,722,255588
8,-69,278,-1519,693,255660
-223,-9,-2,-1489,668,255563
76,13,176,-1558,717,255496
-136,-112,20,-1440,683,255532
-28,-72,85,-1536,648,255447
-26,-7,213,-1536,708,255538
-259,-106,-14,-1543,598,255615
30,-48,230,-1553,546,255553
-238,1,-18,-1480,625,255634
-102,130,-21,-1591,758,255518
-57,86,232,-1498,779,255625
-270,-32,56,-1526,682,255593
7,130,317,-1601,632,255615
-259,50,56,-1461,698,255694
-96,-4,151,-1600,635,255565
-128,87,166,-1493,631,255560
-193,88,79,-1501,643,255565
-67,193,259,-1560,647,255605
-150,120,176,-1524,709,255618
-175,102,197,-1584,687,255496
-53,87,224,-1663,693,255532
-170,29,44,-1556,652,255596
-5,59,230,-1599,659,255629
-253,-7,51,-1482,715,255747
-65,51,346,-1606,663,255664
-250,199,15,-1534,762,255627
20,43,353,-1521,775,255599
-259,115,177,-1428,643,255610
31,35,330,-1612,647,255539
-153,56,116,-1526,675,255584
15,92,178,-1563,627,255584
-99,61,69,-1491,701,255670
11,84,198,-1507,679,255518
-18,63,79,-1545,596,255661
-40,180,97,-1556,603,255518
38,48,156,-1530,681,255654
11,-14,255,-1521,574,255548
-10,191,-10,-1536,627,255565
128,78,246,-1563,695,255676
-169,138,-130,-1423,639,255597
250,203,401,-1570,636,255552
-270,227,-99,-1499,622,255604
190,161,310,-1659,621,255579
-123,146,22,-1375,604,255742
119,144,236,-1584,692,255600
-42,123,24,-1516,700,255503
30,151,134,-1531,684,255475
-101,88,70,-1469,710,255657
-28,137,220,-1635,643,255592
-104,202,166,-1537,641,255522
-99,108,232,-1558,610,255522
-65,28,288,-1533,579,255609
-79,52,211,-1524,596,255609
-134,62,13,-1542,651,255652
5,-32,213,-1438,690,255654
-264,-23,87,-1553,616,255580
-8,97,407,-1513,621,255549
-276,20,197,-1453,660,255610
-40,18,332,-1631,539,255516
-210,10,61,-1488,677,255545
-1,19,219,-1519,597,255524
-131,54,132,-1495,608,255511
-125,38,61,-1653,660,255572
-58,-7,224,-1579,611,255650
-141,116,192,-1541,657,255680
-93,120,243,-1560,766,255586
-110,78,238,-1515,700,255459
-59,62,153,-1560,653,255526
36,131,211,-1540,699,255544
-130,75,56,-1513,633,255565
4,59,78,-1585,685,255551
-62,175,143,-1502,707,255633
-69,150,40,-1571,641,255618
2,156,204,-1610,654,255635
-106,139,64,-1421,649,255676
51,123,164,-1499,673,255558
-1,123,201,-1536,681,255605
-57,55,57,-1623,568,255642
-35,208,-52,-1630,649,255498
33,115,30,-1530,725,255542
-90,132,52,-1527,684,255554
15,224,217,-1527,663,255532
-77,121,128,-1492,724,255587
96,161,227,-1585,598,255609
33,131,-44,-1528,583,255594
141,135,24,-1579,619,255567
70,-62,13,-1498,664,255551
35,-70,411,-1516,674,255505
-24,274,447,-1613,697,255740
-8,215,270,-1563,641,255623
-27,59,-321,-1560,610,255510
358,-3,-336,-1611,600,255500
222,159,332,-1451,690,255657
-93,239,746,-1546,687,255655
-17,3,533,-1648,669,255624
85,-25,-114,-1526,645,255523
293,137,-297,-1453,571,255562
82,307,40,-1481,711,255496
-33,23,573,-1546,758,255559
11,-205,699,-1530,589,255553
94,121,218,-1491,612,255568
89,247,-320,-1581,702,255566
95,105,-57,-1518,691,255580
-24,52,348,-1499,610,255549
-103,112,327,-1620,715,255603
60,141,304,-1516,675,255543
-81,-12,12,-1468,599,255534
37,40,-14,-1610,649,255433
33,-73,34,-1568,698,255560
-27,-39,172,-1562,620,255558
-121,70,82,-1550,631,255616
-43,-41,228,-1638,696,255625
-146,0,194,-1521,656,255685
-48,52,285,-1495,632,255632
-248,-1,81,-1533,700,255642
-15,-102,39,-1659,645,255552
-82,-30,-204,-1489,661,255558
2,46,-28,-1562,690,255546
-114,-16,81,-1554,650,255684
-164,42,181,-1580,645,255597
-98,50,106,-1551,619,255563
-154,77,181,-1539,659,255551
-119,81,70,-1504,678,255560
20,17,181,-1530,682,255617
-80,-49,30,-1503,678,255620
23,-21,56,-1555,678,255539
-65,66,64,-1512,755,255591
-39,70,247,-1518,678,255592
-153,88,278,-1569,674,255605
-83,66,194,-1550,683,255551
-16,81,116,-1536,664,255666
1,106,52,-1539,622,255580
27,95,189,-1597,575,255612
-161,144,292,-1498,655,255650
-147,123,127,-1502,642,255643
-66,81,184,-1547,611,255526
-80,12,193,-1520,605,255532
-109,59,340,-1539,668,255529
-129,74,474,-1568,657,255525
-89,26,232,-1550,624,255661
43,36,44,-1525,636,255594
55,59,-30,-1425,609,255592
-33,68,124,-1565,524,255664
-10,123,207,-1496,638,255618
7,91,146,-1550,622,255489
3,88,33,-1583,603,255505
140,38,192,-1513,660,255667
-17,50,244,-1443,649,255674
105,4,234,-1548,717,255639
97,-64,74,-1495,619,255696
33,9,-78,-1562,678,255589
89,100,43,-1549,675,255577
-77,27,309,-1503,667,255601
-125,15,253,-1616,643,255569
33,28,162,-1541,613,255521
82,-41,-80,-1432,669,255604
169,-89,-90,-1498,615,255617
109,-62,-79,-1503,574,255742
148,-62,19,-1576,673,255528
99,-42,70,-1556,623,255573
77,-26,350,-1471,575,255583
-73,-43,238,-1536,607,255708
178,-30,274,-1578,644,255569
133,-52,72,-1471,633,255528
134,-62,81,-1439,571,255623
113,-18,127,-1539,680,255533
45,39,101,-1575,619,255531
88,116,33,-1527,634,255556
54,64,99,-1462,691,255565
-93,-26,198,-1441,622,255591
-3,8,353,-1515,664,255633
-74,-62,192,-1470,660,255640
35,-69,-38,-1570,626,255589
74,-41,-135,-1521,633,255447
65,34,-42,-1543,616,255642
-18,113,104,-1520,579,255642
-68,72,198,-1563,630,255601
15,73,241,-1545,591,255596
4,98,146,-1520,565,255443
71,63,199,-1575,621,255459
31,36,144,-1498,590,255602
16,28,80,-1477,617,255557
38,100,11,-1460,652,255556
14,76,106,-1541,626,255438
-66,81,172,-1478,628,255527
-98,75,285,-1518,669,255608
-47,43,238,-1536,698,255641
55,17,237,-1490,664,255571
-68,-23,50,-1556,677,255743
78,2,-10,-1532,656,255667
47,64,-40,-1458,631,255543
29,116,28,-1547,680,255493
-22,157,215,-1517,609,255546
-43,85,326,-1499,682,255615
81,84,312,-1538,666,255583
38,133,197,-1552,732,255567
90,21,85,-1515,649,255654
64,0,84,-1524,658,255586
57,107,-2,-1572,707,255570
48,147,81,-1574,622,255539
-13,48,259,-1535,689,255612
-112,44,237,-1509,679,255664
-68,120,266,-1499,645,255578
27,65,207,-1460,604,255472
-20,10,94,-1533,601,255670
59,41,31,-1531,597,255710
101,32,-4,-1539,613,255595
60,99,50,-1538,605,255623
-24,67,176,-1563,591,255641
-90,37,236,-1465,633,255581
91,43,404,-1524,700,255602
-57,-62,84,-1456,702,255630
99,-98,63,-1478,601,255564
89,-64,17,-1469,640,255549
-39,-18,-34,-1518,600,255454
-66,36,46,-1519,708,255617
-110,-12,158,-1536,678,255528
-152,43,152,-1605,634,255587
-69,10,308,-1608,667,255579
-161,-95,148,-1475,642,255614
-76,-58,142,-1512,627,255561
-70,-28,12,-1459,626,255569
-56,22,14,-1551,664,255448
-150,90,69,-1586,637,255547
-140,31,161,-1537,581,255659
-131,25,396,-1555,606,255668
-227,86,323,-1474,575,255638
-206,35,132,-1536,604,255618
-77,23,145,-1478,648,255539
-104,77,13,-1451,650,255539
-148,111,-31,-1536,661,255626
-135,113,117,-1562,646,255546
-242,131,190,-1549,651,255508
-262,130,348,-1600,667,255589
-224,94,384,-1515,679,255552
-230,21,304,-1460,578,255683
-171,64,243,-1489,607,255645
-104,90,231,-1526,632,255626
-168,112,-33,-1486,674,255664
-99,169,100,-1499,696,255588
-245,141,111,-1496,656,255562
-126,122,414,-1585,715,255490
-208,146,378,-1505,752,255641
-123,74,258,-1476,712,255630
-67,-15,182,-1491,751,255599
-60,66,154,-1462,586,255547
-85,151,97,-1524,659,255650
-99,142,120,-1538,639,255593
-121,183,64,-1442,605,255616
-83,118,310,-1563,598,255593
-142,76,358,-1617,586,255606
-50,57,292,-1559,636,255560
-82,22,60,-1478,658,255679
82,68,97,-1557,642,255670
-11,122,18,-1522,622,255588
-45,198,115,-1548,637,255441
-138,175,116,-1503,706,255537
3,122,294,-1575,639,255551
-70,123,232,-1521,647,255526
-44,86,162,-1572,742,255572
-1,-2,90,-1559,657,255725
83,-2,91,-1524,656,255550
43,121,46,-1501,602,255624
-45,112,13,-1533,621,255600
-39,90,116,-1618,725,255665
-60,167,184,-1522,667,255646
-65,138,271,-1470,677,255708
-77,54,271,-1489,655,255621
-25,-1,180,-1508,604,255489
60,100,73,-1413,662,255544
-1,144,81,-1502,699,255542
-70,98,-53,-1534,682,255656
38,92,190,-1581,738,255566
-149,100,226,-1489,610,255558
-14,100,477,-1587,689,255592
-168,56,292,-1546,786,255592
-32,47,114,-1564,651,255529
69,171,21,-1475,611,255547
-39,128,-97,-1511,692,255574
-17,178,-7,-1574,636,255568
-40,214,138,-1485,664,255620
-70,180,217,-1586,661,255549
-32,154,298,-1531,642,255536
-74,81,189,-1449,607,255567
35,100,196,-1508,612,255622
45,81,66,-1519,622,255623
3,109,14,-1571,640,255607
-25,141,-37,-1577,616,255539
-26,136,63,-1550,627,255619
-90,177,169,-1483,592,255704
-68,116,261,-1486,639,255611
-44,12,287,-1514,662,255671
19,3,197,-1523,617,255637
110,47,110,-1536,651,255516
9,53,16,-1526,635,255536
0,14,36,-1502,666,255580
25,60,188,-1512,689,255551
-33,66,237,-1570,693,255606
-13,10,250,-1521,699,255691
7,-40,266,-1502,677,255671
86,-46,226,-1538,653,255535
113,-31,119,-1454,631,255525
90,-21,-31,-1514,563,255515
98,8,-45,-1553,681,255651
130,47,136,-1504,672,255641
-10,21,167,-1484,690,255606
18,52,241,-1526,663,255573
81,15,200,-1579,655,255540
101,-16,163,-1552,641,255507
116,8,72,-1507,648,255662
96,32,-35,-1479,614,255632
68,92,-76,-1529,573,255497
110,61,98,-1498,588,255535
-42,37,172,-1569,621,255636
6,9,170,-1576,651,255584
26,-86,221,-1517,709,255692
14,-105,145,-1552,654,255564
106,-16,98,-1513,604,255604
20,-19,-15,-1507,654,255626
42,-30,-16,-1509,609,255577
9,33,113,-1536,573,255632
-91,74,184,-1482,593,255652
-43,15,293,-1580,658,255646
-69,-20,267,-1590,702,255568
-27,8,209,-1522,659,255573
-25,-7,81,-1454,579,255722
-19,50,29,-1545,645,255816
-112,159,-12,-1504,674,255558
-80,202,187,-1510,687,255503
-200,136,261,-1510,704,255740
-176,139,319,-1591,750,255643
-126,88,285,-1541,755,255546
-160,28,141,-1526,683,255492
-27,101,108,-1553,623,255603
-163,130,-70,-1409,620,255694
-89,128,-47,-1578,638,255634
-30,117,200,-1515,703,255485
-311,185,50,-1532,660,255512
-47,133,367,-1540,647,255636
-227,-4,267,-1477,679,255651
-39,58,239,-1650,593,255592
-56,70,194,-1492,646,255716
-164,-29,23,-1520,630,255648
48,64,106,-1562,630,255609
-64,42,130,-1498,655,255628
-109,8,165,-1575,638,255631
-15,38,385,-1577,632,255634
-81,-47,184,-1502,626,255641
148,-43,376,-1560,567,255605
0,-58,71,-1485,579,255553
89,3,-69,-1532,633,255546
135,60,-80,-1491,735,255660
149,6,52,-1514,689,255667
5,82,123,-1517,678,255567
109,85,218,-1518,656,255611
80,18,230,-1525,646,255606
136,27,231,-1480,591,255671
138,-18,52,-1470,635,255604
130,10,13,-1523,626,255536
166,-1,-51,-1516,684,255495
69,65,-76,-1554,636,255475
116,82,157,-1538,639,255493
-8,-13,247,-1585,632,255577
31,-25,235,-1566,611,255607
175,-79,179,-1456,656,255531
46,-72,50,-1468,694,255640
137,-45,80,-1534,637,255711
49,-81,91,-1483,699,255644
71,6,36,-1556,595,255502
96,64,173,-1438,582,255441
-48,-50,208,-1506,679,255512
45,-39,381,-1555,626,255663
0,54,272,-1505,631,255593
84,-8,55,-1566,669,255649
50,19,9,-1410,663,255692
71,49,-69,-1504,605,255582
120,81,199,-1550,693,255501
-144,32,219,-1540,676,255607
-81,19,164,-1522,598,255706
115,86,390,-1543,659,255587
-45,-8,248,-1541,707,255589
-61,25,57,-1561,659,255530
118,31,11,-1571,766,255456
107,-18,-82,-1442,693,255617
-57,104,-96,-1510,590,255551
-6,86,65,-1520,596,255515
-107,48,237,-1634,563,255666
-88,27,228,-1523,626,255624
-29,29,237,-1500,665,255670
-58,-13,82,-1488,660,255671
-2,-42,-38,-1517,575,255590
-47,99,-9,-1483,549,255597
-39,48,43,-1524,640,255648
-148,62,146,-1604,650,255627
-113,46,184,-1541,660,255617
20,-61,240,-1485,598,255605
-71,-11,163,-1531,569,255598
41,-44,92,-1625,596,255537
64,-37,-67,-1587,600,255724
155,30,-54,-1519,641,255692
76,79,-101,-1492,641,255558
38,91,270,-1517,653,255678
-89,57,296,-1618,656,255653
58,-10,260,-1592,608,255631
116,12,231,-1539,678,255509
32,-32,57,-1476,716,255489
40,-32,83,-1525,713,255551
57,112,130,-1523,655,255544
18,124,-2,-1486,534,255594
29,123,40,-1524,597,255627
84,114,210,-1516,592,255613
69,66,234,-1474,656,255582
67,69,269,-1519,677,255602
54,46,215,-1529,575,255549
75,46,93,-1538,650,255555
94,97,173,-1546,686,255552
56,130,177,-1461,707,255603
12,95,249,-1519,666,255678
0,90,339,-1587,634,255563
27,63,272,-1577,626,255518
24,-11,279,-1563,670,255464
-17,38,148,-1499,610,255583
-50,45,58,-1506,600,255577
-35,95,83,-1500,642,255610
-92,129,70,-1548,610,255525
-177,88,74,-1572,622,255633
-112,48,236,-1526,616,255563
-158,38,220,-1519,596,255532
-137,27,197,-1493,622,255595
-156,-3,185,-1437,632,255542
-136,9,48,-1488,610,255535
-113,93,-36,-1484,644,255510
-159,139,-3,-1522,720,255505
-191,128,165,-1579,634,255597
-252,162,356,-1575,657,255617
-231,163,310,-1603,642,255749
-227,98,235,-1534,664,255724
-195,60,141,-1497,670,255648
-192,93,70,-1501,666,255557
-192,110,72,-1477,631,255441
-222,146,93,-1503,612,255616
-311,145,159,-1567,674,255627
-211,135,269,-1577,660,255594
-258,115,281,-1507,639,255575
-210,112,302,-1478,627,255628
-206,98,146,-1475,666,255653
-113,70,123,-1512,697,255573
-122,176,46,-1497,617,255666
-123,202,84,-1533,582,255543
-116,150,220,-1521,642,255639
-154,138,242,-1515,644,255667
-64,147,329,-1597,646,255647
-116,66,292,-1484,652,255582
-128,44,197,-1501,737,255534
-65,164,65,-1547,639,255695
-95,190,56,-1457,674,255740
-105,196,93,-1498,666,255622
-134,194,209,-1508,659,255617
-110,151,208,-1524,705,255583
-30,157,221,-1495,702,255576
-128,105,231,-1514,643,255619
-51,92,231,-1582,660,255637
-53,124,243,-1483,676,255638
-69,180,121,-1529,662,255655
-64,172,168,-1551,734,255582
-141,104,171,-1498,703,255491
-40,158,277,-1546,694,255536
-108,104,226,-1580,670,255623
-82,-7,190,-1549,657,255688
-52,40,161,-1546,563,255596
-85,60,28,-1508,615,255474
-76,74,102,-1533,628,255622
-121,46,137,-1575,564,255532
-106,71,220,-1502,604,255556
-65,48,367,-1563,662,255674
-132,-3,355,-1597,674,255681
-139,-29,270,-1591,632,255585
-48,-110,23,-1463,649,255608
30,-110,-86,-1478,658,255619
-47,-85,-98,-1494,642,255665
-44,-76,256,-1598,635,255652
-162,-8,452,-1559,610,255679
-69,38,421,-1611,575,255674
-76,61,160,-1556,643,255667
-52,32,-85,-1534,667,255507
5,16,-26,-1555,610,255462
-84,26,80,-1557,681,255686
-50,89,136,-1613,660,255687
-5,127,180,-1542,672,255534
-109,50,109,-1536,643,255637
-28,72,72,-1514,699,255624
29,113,205,-1469,686,255568
-33,-55,250,-1574,666,255551
-130,95,81,-1657,615,255585
97,153,132,-1490,658,255609
-24,137,13,-1479,647,255617
-74,184,84,-1566,624,255554
-105,130,-2,-1484,650,255525
80,116,275,-1561,651,255648
43,128,223,-1507,658,255582
-32,116,254,-1518,670,255608
59,66,48,-1574,614,255497
147,67,-62,-1546,558,255603
39,96,-66,-1485,540,255598
63,125,199,-1549,606,255663
54,176,277,-1492,653,255657
161,213,334,-1482,660,255601
95,190,70,-1516,618,255637
239,97,185,-1630,611,255494
69,72,53,-1532,603,255536
186,159,219,-1521,590,255662
123,161,-40,-1479,606,255568
238,110,169,-1551,633,255493
24,150,-34,-1578,660,255587
218,146,256,-1544,613,255639
85,44,96,-1509,663,255618
161,16,174,-1543,640,255553
81,63,81,-1441,689,255697
213,81,90,-1493,662,255668
73,82,-49,-1474,661,255488
137,89,48,-1439,660,255571
42,47,200,-1516,616,255581
16,42,274,-1458,626,255606
16,4,150,-1497,721,255580
87,-3,7,-1601,674,255543
100,-45,12,-1504,608,255583
-30,-7,74,-1451,622,255594
-25,19,201,-1523,627,255622
-79,7,158,-1579,596,255637
-85,-50,86,-1595,630,255573
-14,-65,167,-1463,654,255550
-86,-94,247,-1531,602,255555
-80,-91,196,-1560,619,255627
-20,-141,119,-1577,578,255633
22,-88,-65,-1484,627,255565
-37,-37,-41,-1478,606,255571
-79,-14,92,-1510,619,255540
3,-70,443,-1565,611,255594
-125,-46,207,-1542,593,255619
109,-105,274,-1645,591,255539
-81,-180,84,-1543,575,255594
117,-105,53,-1521,607,255645
14,-7,84,-1556,656,255750
-49,-42,-76,-1542,692,255583
176,34,227,-1461,634,255619
-156,64,60,-1407,606,255700
95,47,214,-1540,587,255519
-26,66,256,-1444,659,255544
-15,36,137,-1506,658,255602
97,91,229,-1522,644,255604
-22,67,94,-1387,731,255678
12,47,-51,-1519,683,255628
45,113,50,-1569,714,255604
6,2,218,-1547,619,255638
-92,94,230,-1598,545,255581
124,32,339,-1443,640,255639
-60,3,47,-1498,653,255619
128,108,1,-1501,597,255549
63,34,81,-1424,601,255667
-98,132,15,-1527,638,255565
90,110,54,-1504,682,255576
-4,86,95,-1543,703,255694
71,149,77,-1576,664,255513
68,91,167,-1456,686,255549
-8,83,179,-1483,631,255545
189,21,264,-1506,570,255575
-33,66,-2,-1452,659,255678
69,106,-36,-1500,640,255516
24,110,-23,-1565,644,255519
12,144,246,-1593,625,255612
-102,140,146,-1536,637,255555
104,89,271,-1539,683,255610
4,-23,191,-1477,643,255640
49,70,159,-1537,622,255708
25,75,175,-1506,627,255655
-30,-43,217,-1560,622,255702
-19,11,85,-1626,615,255652
10,-14,164,-1547,699,255491
-73,-73,240,-1460,690,255679
-50,-93,347,-1501,633,255573
-101,-80,289,-1506,627,255562
-12,-103,127,-1547,617,255610
-52,-136,-52,-1548,662,255563
-52,-50,-2,-1551,634,255524
-90,-110,102,-1577,598,255513
-160,-126,136,-1510,630,255677
-53,-57,235,-1509,687,255738
-172,-94,82,-1490,649,255663
-30,-100,166,-1612,672,255560
-63,-49,114,-1551,636,255577
-100,-24,-60,-1479,635,255562
-31,-31,59,-1506,684,255523
-146,-78,68,-1468,616,255627
-105,-14,179,-1502,723,255641
-84,-67,288,-1548,636,255533
-144,-85,156,-1484,629,255557
14,-20,232,-1588,618,255620
-36,-8,89,-1541,679,255674
-55,55,64,-1533,668,255544
-40,108,25,-1492,671,255547
-3,50,133,-1493,612,255594
-57,72,178,-1487,580,255581
-4,85,282,-1537,680,255601
17,21,250,-1440,719,255656
66,-75,240,-1547,555,255624
126,0,174,-1494,660,255605
41,83,77,-1493,744,255610
78,64,142,-1550,644,255535
95,108,213,-1455,623,255505
42,138,123,-1480,603,255628
100,124,211,-1592,639,255553
71,81,228,-1510,646,255489
116,122,213,-1493,588,255617
86,181,29,-1488,679,255615
165,140,-15,-1600,679,255532
51,213,-100,-1528,627,255683
91,240,128,-1527,659,255504
-44,205,137,-1527,690,255602
0,223,199,-1595,592,255557
25,217,114,-1523,627,255618
71,251,93,-1494,651,255668
13,258,-2,-1441,629,255681
9,287,-4,-1517,703,255531
-72,216,55,-1569,652,255499
-24,197,102,-1596,725,255549
-98,181,186,-1540,689,255655
-168,117,201,-1517,631,255711
-59,102,227,-1545,643,255693
-39,63,184,-1538,640,255619
-79,73,75,-1449,679,255525
-82,30,106,-1486,710,255668
-156,42,72,-1509,614,255564
-91,72,250,-1580,575,255536
-196,1,258,-1587,612,255501
-136,-32,347,-1566,663,255516
-156,-52,318,-1536,652,255646
-97,-28,288,-1532,671,255551
-129,-23,146,-1486,638,255631
-120,7,40,-1593,538,255688
-93,56,189,-1530,623,255674
-231,60,199,-1509,642,255586
-205,48,226,-1572,657,255549
-222,0,247,-1484,690,255528
-126,3,382,-1494,635,255638
-248,37,302,-1527,602,255601
-156,79,243,-1513,612,255578
-136,85,123,-1511,657,255591
-156,53,85,-1559,713,255603
-122,46,139,-1570,657,255588
-280,46,226,-1587,664,255645
-184,-10,347,-1552,683,255584
-192,-34,262,-1494,661,255434
-119,-10,169,-1552,615,255523
-63,3,124,-1608,634,255522
-163,37,3,-1593,700,255521
-92,68,9,-1585,608,255570
-139,60,90,-1536,629,255625
-196,51,154,-1531,582,255532
-159,88,336,-1553,545,255635
-172,73,334,-1512,584,255563
-135,84,215,-1524,622,255512
-96,138,115,-1493,612,255475
-105,143,26,-1560,673,255509
-155,132,37,-1542,651,255572
-130,166,32,-1454,637,255597
-114,166,153,-1530,683,255583
-123,81,196,-1496,666,255594
-45,95,249,-1485,662,255632
-41,122,192,-1540,614,255556
6,237,69,-1504,620,255542
12,228,158,-1540,655,255646
-108,260,85,-1504,629,255585
-21,334,296,-1530,623,255595
-175,194,171,-1500,675,255616
-103,162,206,-1577,576,255624
-47,82,247,-1528,546,255590
-107,58,111,-1501,629,255686
-49,126,236,-1471,639,255475
-113,50,64,-1455,669,255536
-82,155,93,-1521,676,255584
-108,147,50,-1519,660,255625
-106,28,102,-1533,632,255629
-144,92,390,-1580,640,255592
-122,46,195,-1488,599,255708
-35,79,296,-1519,685,255648
-30,94,191,-1493,685,255587
-10,32,103,-1482,646,255598
-56,203,161,-1506,655,255650
94,107,337,-1525,694,255638
-215,-42,162,-1485,630,255584
6,86,422,-1560,582,255496
-90,-22,137,-1398,675,255588
-30,-2,232,-1576,655,255615
2,12,122,-1558,639,255572
-18,-36,-125,-1445,655,255642
102,48,28,-1554,676,255662
-41,-16,-41,-1503,668,255633
-109,-20,51,-1506,660,255647
111,28,379,-1522,656,255550
-38,-129,15,-1461,629,255592
247,-64,125,-1519,644,255569
133,-33,-9,-1452,693,255600
53,7,-115,-1490,691,255582
129,123,90,-1442,696,255483
71,38,12,-1517,689,255586
77,-6,30,-1496,620,255653
132,-13,334,-1519,643,255608
22,-77,204,-1500,547,255587
136,-57,252,-1482,639,255615
120,16,176,-1493,690,255523
8,117,-160,-1439,650,255592
225,95,164,-1570,682,255396
-47,171,-64,-1506,700,255544
78,155,174,-1609,709,255620
60,90,341,-1545,597,255624
63,96,251,-1544,633,255578
133,138,191,-1487,612,255602
174,150,177,-1517,617,255563
107,174,-35,-1498,651,255634
224,242,39,-1535,631,255562
53,191,39,-1514,685,255457
21,93,66,-1520,642,255555
110,140,239,-1493,685,255588
2,76,151,-1472,704,255581
116,43,181,-1488,615,255548
97,121,100,-1541,552,255671
142,133,-9,-1563,650,255729
100,163,29,-1527,693,255571
45,188,0,-1510,643,255669
39,112,184,-1518,649,255672
11,51,269,-1504,620,255636
105,66,209,-1552,638,255609
84,5,99,-1519,663,255594
137,23,79,-1560,622,255650
101,116,52,-1528,607,255654
37,113,9,-1552,679,255539
53,64,30,-1671,632,255524
-23,13,117,-1588,674,255528
-34,-57,171,-1547,647,255676
15,-102,191,-1542,569,255636
7,-103,130,-1505,633,255598
4,-21,-35,-1525,670,255600
98,-12,32,-1513,710,255544
3,21,5,-1533,616,255526
-37,72,-10,-1657,582,255550
20,-33,208,-1555,739,255464
-120,-101,161,-1508,645,255552
74,-59,355,-1566,596,255521
-62,-123,210,-1429,620,255464
103,-145,195,-1583,667,255509
93,-3,30,-1527,662,255545
45,-11,25,-1492,629,255549
53,-34,140,-1552,628,255576
-22,-21,315,-1551,573,255662
-48,-60,306,-1512,610,255639
59,-22,307,-1499,703,255594
-8,-41,113,-1462,667,255436
39,21,77,-1505,652,255516
32,80,48,-1437,688,255515
32,117,55,-1511,661,255626
-27,134,74,-1510,592,255617
-39,4,182,-1467,641,255647
-1,23,270,-1494,609,255613
14,30,285,-1594,643,255622
-32,-20,222,-1540,676,255581
18,21,161,-1545,633,255588
57,128,38,-1511,655,255598
12,198,52,-1482,750,255494
-68,142,90,-1529,688,255363
-91,126,212,-1494,644,255559
-63,88,299,-1532,617,255585
-70,56,236,-1498,643,255499
-62,65,219,-1502,626,255534
-37,55,72,-1543,665,255439
-10,196,33,-1581,696,255541
-60,219,-25,-1507,735,255630
-107,162,25,-1461,713,255554
-163,115,82,-1510,611,255545
-103,31,221,-1512,632,255626
-128,27,226,-1539,551,255682
-140,2,158,-1530,631,255610
-100,39,83,-1518,595,255580
-79,76,50,-1490,609,255579
-78,97,59,-1525,665,255609
-188,79,-3,-1491,635,255602
-150,71,156,-1483,610,255697
-164,90,241,-1568,639,255716
-78,3,391,-1483,585,255577
-191,-45,186,-1438,608,255600
20,-2,66,-1518,619,255588
31,32,63,-1533,670,255548
-123,79,-13,-1534,582,255628
-23,58,150,-1588,667,255596
-111,-79,311,-1539,676,255561
-105,-97,204,-1614,635,255561
8,-51,304,-1582,636,255591
-139,-110,139,-1585,660,255673
49,-54,145,-1561,633,255556
-6,42,84,-1467,700,255588
-49,40,-100,-1461,684,255599
33,48,76,-1521,664,255568
-123,-36,178,-1540,630,255549
-80,-49,333,-1595,574,255566
-15,-60,323,-1515,679,255561
-30,-163,180,-1503,736,255562
32,35,102,-1531,708,255566
101,63,26,-1502,673,255673
-51,73,-77,-1513,666,255633
80,104,75,-1520,659,255772
-10,-7,253,-1452,649,255757
-65,-15,263,-1617,530,255695
109,-7,295,-1561,622,255598
-5,-46,248,-1470,628,255698
99,6,156,-1608,631,255648
85,112,97,-1548,696,255612
5,143,-30,-1555,720,255550
64,122,76,-1600,719,255562
-59,74,113,-1532,688,255583
-5,24,238,-1576,603,255517
-11,47,270,-1533,614,255567
-23,-3,235,-1516,661,255689
45,3,155,-1508,712,255699
108,117,30,-1575,619,255649
52,128,-23,-1517,651,255649
-4,120,110,-1520,635,255673
-2,91,244,-1570,645,255643
-65,130,232,-1463,667,255511
-17,52,271,-1505,647,255521
-19,-10,246,-1541,589,255606
-2,114,137,-1470,608,255626
44,173,-27,-1528,694,255535
-8,154,7,-1595,660,255605
-116,215,58,-1549,660,255617
-89,187,212,-1563,661,255641
-161,119,283,-1492,685,255655
-90,43,317,-1547,632,255652
-145,53,164,-1516,621,255655
9,43,144,-1588,639,255541
-94,128,-49,-1500,649,255470
-83,110,-31,-1597,657,255519
-92,64,2,-1500,659,255612
-109,84,141,-1485,627,255668
-117,69,136,-1500,698,255682
-151,-14,265,-1553,623,255696
-124,-65,171,-1503,584,255677
-17,84,133,-1523,616,255579
-45,54,42,-1546,648,255644
-56,28,62,-1447,615,255578
-120,133,157,-1556,627,255578
-98,47,261,-1530,692,255634
-157,-30,399,-1493,653,255578
-132,-70,385,-1474,574,255568
-111,-55,152,-1543,643,255656
62,-18,316,-1532,649,255621
-107,-7,-54,-1498,572,255649
30,97,137,-1590,656,255488
-108,50,-18,-1509,623,255593
29,34,188,-1610,660,255542
-132,92,299,-1495,700,255558
-106,-31,183,-1523,655,255646
48,-35,383,-1471,588,255649
-101,107,71,-1513,587,255549
46,66,-2,-1619,661,255636
-48,100,-63,-1515,718,255699
-24,67,49,-1521,663,255453
-135,122,171,-1512,688,255576
-148,97,335,-1497,635,255565
-154,-13,194,-1594,559,255641
-51,62,292,-1535,667,255607
-136,76,194,-1446,675,255582
-134,161,78,-1507,634,255584
-158,218,147,-1547,700,255624
-180,137,89,-1593,668,255592
-84,143,243,-1468,635,255617
-180,12,323,-1486,668,255641
-121,2,294,-1598,636,255496
-49,21,443,-1547,624,255551
-206,76,134,-1562,628,255602
27,123,108,-1600,612,255469
-112,133,-40,-1432,615,255644
2,167,113,-1484,691,255583
-156,182,126,-1445,710,255757
-111,185,294,-1561,637,255541
-161,81,252,-1502,611,255593
-77,5,281,-1529,642,255554
-11,147,241,-1540,656,255609
-123,163,-67,-1542,664,255515
18,149,71,-1481,637,255605
-138,198,-56,-1489,739,255589
-74,206,99,-1562,687,255502
-184,157,292,-1493,670,255610
-175,41,216,-1535,621,255597
-36,63,231,-1472,615,255601
-117,83,110,-1481,571,255609
-6,126,72,-1468,577,255630
-103,152,1,-1463,677,255593
-28,94,90,-1511,710,255660
-79,87,128,-1514,698,255589
-56,52,289,-1472,642,255601
-163,-11,236,-1475,734,255578
-56,-37,319,-1486,614,255556
-35,16,109,-1439,501,255565
-71,53,-136,-1552,617,255582
51,-50,-63,-1556,676,255617
40,40,-9,-1461,676,255631
-39,60,118,-1598,689,255581
-44,-71,251,-1560,643,255599
-37,-5,302,-1541,684,255536
95,-22,304,-1494,664,255568
-9,15,158,-1479,632,255655
89,17,98,-1564,648,255593
53,83,-15,-1498,654,255573
111,79,113,-1598,638,255600
20,50,175,-1514,678,255638
12,86,310,-1504,677,255650
75,-37,408,-1519,670,255621
-23,-2,315,-1545,632,255655
108,81,134,-1512,646,255602
98,45,74,-1481,640,255695
62,37,-40,-1469,606,255674
129,124,32,-1453,687,255489
56,125,153,-1496,715,255695
29,19,149,-1526,596,255661
96,50,287,-1529,589,255596
84,12,235,-1496,563,255667
88,6,116,-1624,578,255605
140,52,31,-1540,623,255613
53,32,-120,-1561,677,255562
129,108,-51,-1605,632,255550
134,29,44,-1508,654,255670
8,8,148,-1515,630,255646
131,38,223,-1594,640,255549
89,12,228,-1459,675,255511
58,63,43,-1546,594,255578
174,110,4,-1514,634,255528
40,136,-108,-1568,581,255645
128,185,-71,-1561,567,255660
87,195,88,-1462,648,255670
-21,144,104,-1513,668,255632
93,94,326,-1496,632,255523
39,110,335,-1532,677,255616
23,134,102,-1589,686,255541
142,141,68,-1535,649,255544
81,97,-31,-1482,714,255657
125,128,52,-1537,628,255674
56,88,101,-1463,687,255598
48,36,224,-1581,653,255590
99,43,276,-1521,651,255714
82,-52,247,-1518,613,255699
105,-54,148,-1525,640,255640
145,27,6,-1536,622,255597
134,51,-98,-1510,674,255642
171,76,-5,-1516,674,255613
69,27,71,-1536,640,255624
56,13,254,-1631,653,255734
131,-8,369,-1517,661,255647
6,-36,230,-1549,644,255572
162,-34,221,-1519,657,255589
42,2,-60,-1486,693,255559
147,57,8,-1572,665,255564
65,86,-8,-1479,633,255536
20,85,96,-1581,670,255624
1,84,133,-1480,656,255562
61,81,329,-1535,608,255545
-35,13,255,-1535,595,255525
37,77,221,-1522,612,255608
-23,60,73,-1487,702,255563
61,79,-89,-1542,634,255444
58,122,-2,-1521,598,255562
29,26,75,-1631,590,255568
-17,50,328,-1591,635,255592
-14,-46,372,-1540,635,255599
-40,-15,258,-1512,626,255596
12,-43,164,-1617,646,255547
-47,-20,-59,-1540,714,255531
71,16,-59,-1576,661,255518
7,-37,-67,-1535,662,255552
-20,8,-3,-1569,589,255654
-44,-43,226,-1575,648,255651
-39,-47,269,-1519,660,255701
-8,-74,397,-1541,674,255586
-124,-19,-16,-1463,691,255681
150,9,144,-1582,650,255559
-110,0,-159,-1490,644,255615
83,116,18,-1513,686,255642
-116,39,60,-1420,622,255734
-94,6,153,-1522,573,255480
-10,74,389,-1530,632,255562
-182,71,197,-1429,621,255536
-19,32,276,-1620,710,255469
-130,102,104,-1488,654,255516
-101,119,7,-1523,609,255472
-141,173,-19,-1461,675,255610
-130,133,160,-1544,677,255571
-254,114,218,-1552,690,255593
-114,125,466,-1553,613,255627
-178,109,291,-1478,679,255701
-156,83,182,-1538,626,255584
-77,124,66,-1598,691,255571
-109,76,141,-1563,719,255659
-164,131,41,-1489,681,255603
-66,87,227,-1512,637,255510
-227,49,103,-1504,644,255606
0,56,405,-1525,627,255658
-289,43,262,-1413,696,255701
-64,48,407,-1615,692,255746
-216,82,72,-1474,577,255681
-56,52,-26,-1575,565,255570
-37,81,-115,-1543,684,255523
-110,4,113,-1531,696,255588
-122,8,273,-1550,594,255704
-142,34,360,-1635,623,255612
-90,39,294,-1611,613,255609
-80,36,224,-1592,569,255588
-78,55,67,-1561,635,255569
3,87,-89,-1465,662,255584
-44,81,36,-1497,638,255623
-98,70,-58,-1540,672,255635
5,13,338,-1555,686,255578
-180,-8,71,-1466,690,255721
98,9,426,-1600,668,255565
-271,20,110,-1534,634,255664
102,9,134,-1585,635,255522
-106,88,-23,-1412,691,255783
-30,28,-10,-1561,634,255649
-97,29,63,-1548,661,255559
-37,4,273,-1540,652,255506
-83,4,304,-1569,634,255482
-60,25,411,-1593,640,255613
-38,-89,257,-1441,590,255637
-63,16,103,-1544,615,255471
36,44,-17,-1525,723,255586
-70,-58,114,-1416,724,255578
-141,-2,16,-1466,593,255556
7,-32,323,-1480,623,255484
-199,-27,248,-1485,640,255573
36,-5,335,-1546,545,255579
-152,1,267,-1531,607,255565
-62,42,124,-1547,556,255494
33,104,172,-1616,637,255553
-163,131,-3,-1609,664,255659
26,69,177,-1600,687,255598
-138,135,207,-1484,677,255577
14,119,353,-1536,574,255576
-133,71,329,-1519,666,255631
-81,95,338,-1610,705,255520
-57,171,243,-1516,603,255532
-101,216,134,-1498,646,255546
-92,86,-61,-1508,664,255619
-86,92,-7,-1596,643,255610
-35,168,193,-1521,690,255689
-185,74,298,-1483,655,255673
-170,21,356,-1526,600,255637
-151,-18,169,-1499,619,255540
-70,99,132,-1545,650,255605
-165,113,-143,-1497,704,255632
-53,19,66,-1611,671,255678
-148,-33,-6,-1540,571,255687
-37,-34,188,-1635,595,255655
-181,83,142,-1548,687,255613
-54,-36,317,-1537,608,255540
-217,54,223,-1456,582,255822
-9,174,106,-1571,696,255672
-42,118,6,-1450,651,255571
-84,91,-86,-1529,543,255565
16,79,69,-1523,601,255565
-157,96,127,-1490,630,255501
8,91,219,-1578,604,255481
-110,42,252,-1541,648,255573
-38,82,154,-1531,624,255635
