Vx,Vy,Vz,Ax,Ay,Az
150,20,-50,1354,434,258876
157,-19,-26,1348,297,258909
117,-56,-19,1337,301,258764
96,-87,-13,1335,320,258699
65,-108,-49,1305,346,258819
39,-102,-36,1390,283,258760
31,-96,-62,1424,401,258754
22,-109,-96,1373,414,258852
36,-108,-56,1319,378,258778
61,-130,-94,1277,365,258908
90,-149,-66,1330,327,258928
107,-153,-85,1367,325,258830
133,-135,-50,1280,272,258693
148,-87,-40,1390,397,258802
174,-40,-29,1355,376,258923
191,-5,3,1324,397,258902
233,37,26,1287,388,258874
267,34,30,1266,339,258960
280,46,29,1331,412,258825
286,56,39,1330,391,258826
284,71,-15,1347,396,258745
241,92,25,1409,374,258906
229,141,8,1303,384,258794
183,143,-28,1269,419,258828
153,154,35,1262,424,258855
139,148,41,1278,442,258877
119,130,40,1325,436,258895
82,129,75,1286,420,258849
54,105,52,1322,377,258843
28,85,61,1319,386,258838
-28,81,81,1351,412,258793
-60,78,60,1292,414,258824
-75,62,104,1299,399,258892
-95,56,104,1339,316,258838
-111,33,162,1269,283,258799
-122,19,156,1272,334,258872
-146,14,143,1266,318,258875
-129,35,98,1281,330,258850
-164,89,128,1230,351,258869
-170,147,72,1298,326,258893
-151,199,84,1301,334,258894
-158,239,-10,1324,428,258756
-134,275,-3,1309,378,258796
-121,274,-59,1330,403,258704
-103,279,-103,1302,338,258834
-104,287,-113,1307,374,258861
-88,311,-124,1316,411,258768
-86,320,-70,1240,354,258751
-95,329,-76,1249,422,258718
-70,313,0,1330,427,258870
-78,291,13,1311,395,258799
-74,250,84,1288,374,258844
-72,200,111,1276,342,258839
-84,181,173,1269,401,258808
-114,159,192,1270,349,258819
-146,141,197,1297,394,258830
-166,126,211,1340,358,258849
-181,94,184,1279,354,258817
-189,71,169,1233,383,258798
-184,52,121,1281,432,258896
-178,11,64,1297,450,258856
-162,-15,33,1283,450,258785
-194,-20,27,1336,434,258849
-192,-33,-6,1272,375,258673
-187,-30,-26,1317,354,258779
-183,-42,-58,1284,424,258793
-180,-52,-62,1289,401,258858
-185,-76,-83,1295,334,258861
-194,-99,-115,1331,359,258844
-189,-121,-89,1281,344,258777
-210,-140,-124,1364,384,258674
-214,-124,-69,1297,401,258667
-242,-93,-112,1270,468,258750
-244,-69,-78,1293,385,258706
-233,-40,-86,1292,293,258726
-235,-18,-64,1234,321,258727
-210,-25,-35,1270,359,258758
-184,-22,-26,1305,297,258871
-142,-27,36,1330,362,258876
-107,-29,66,1310,395,258891
-71,-8,114,1401,388,258842
-41,18,101,1316,420,258798
9,45,144,1285,408,258753
65,76,133,1302,414,258808
126,92,156,1254,395,258871
165,106,131,1298,410,258645
210,104,127,1327,427,258816
228,123,130,1254,436,258925
236,146,92,1232,380,258820
240,172,78,1314,281,258778
244,192,37,1340,317,258771
241,212,24,1383,376,258848
243,211,-14,1319,416,258781
251,206,-9,1267,390,258874
244,183,-20,1268,368,258813
237,168,0,1355,406,258839
219,157,-11,1360,431,258820
205,149,15,1304,421,258794
195,152,3,1314,365,258828
187,130,-7,1255,391,258859
182,112,8,1290,417,258888
181,83,16,1308,449,258877
167,37,27,1359,468,258870
145,25,34,1254,395,258779
134,14,50,1235,398,258877
125,12,51,1266,395,258909
107,28,50,1253,350,258880
97,47,33,1297,392,258799
95,54,23,1282,357,258914
104,46,-21,1316,427,258942
96,36,-22,1321,409,258925
102,34,-63,1311,355,258873
101,39,-86,1333,329,258877
94,44,-120,1252,258,258850
65,70,-129,1282,364,258834
59,100,-140,1298,370,258797
41,134,-129,1329,332,258872
24,179,-107,1324,368,258837
20,194,-89,1323,361,258837
11,208,-59,1347,300,258813
-1,214,-28,1299,305,258773
-8,213,-7,1314,442,258776
-13,218,-2,1315,372,258857
-41,232,48,1338,351,258878
-53,233,45,1333,322,258836
-50,223,90,1388,472,258825
-58,198,88,1340,401,258841
-77,201,118,1342,305,258886
-104,174,164,1405,306,258829
-116,160,142,1335,347,258826
-139,144,170,1335,345,258888
-158,139,148,1316,372,258816
-160,130,121,1339,353,258816
-172,96,104,1276,373,258790
-182,59,85,1298,302,258768
-170,17,41,1374,348,258785
-168,-40,51,1364,365,258817
-173,-77,42,1337,331,258886
-186,-105,36,1322,354,258913
-207,-113,28,1296,298,258692
-208,-98,44,1297,312,258837
-213,-125,45,1260,333,258895
-230,-129,72,1388,294,258860
-222,-153,50,1298,397,258841
-215,-189,69,1286,368,258833
-216,-192,77,1360,407,258850
-225,-172,66,1261,326,258897
-230,-165,58,1353,376,258784
-245,-130,51,1370,423,258780
-275,-96,34,1307,483,258925
-284,-70,19,1326,357,258792
-282,-69,-4,1327,400,258846
-279,-51,13,1325,396,258816
-267,-36,20,1347,362,258944
-240,-5,65,1308,334,258897
-223,5,70,1291,377,258891
-209,39,103,1289,384,258946
-189,83,90,1283,407,258961
-153,99,104,1384,380,258868
-133,107,73,1439,398,258865
-107,124,74,1276,422,258810
-52,128,63,1278,424,258787
-35,151,50,1281,339,258844
-6,160,74,1319,348,258795
15,187,47,1326,319,258860
52,210,46,1286,385,258844
75,210,8,1280,394,258819
114,205,8,1345,404,258811
138,197,-25,1330,393,258855
174,177,-1,1372,389,258905
213,177,-1,1340,319,258892
224,164,-12,1269,419,258761
228,154,-25,1307,411,258815
242,157,-52,1308,365,258775
255,171,-66,1297,384,258777
262,159,-82,1236,381,258808
274,138,-82,1291,362,258881
300,142,-64,1371,435,258880
339,117,-25,1420,366,258880
340,130,8,1414,384,258899
331,136,24,1310,340,258915
340,143,47,1303,359,258977
338,150,25,1328,398,258851
306,152,21,1313,310,258801
292,134,20,1373,303,258797
279,123,5,1338,403,258802
258,99,29,1331,400,258940
242,84,13,1293,383,258870
208,81,13,1278,308,258777
180,63,-38,1308,362,258920
156,71,-43,1333,379,258830
122,72,-94,1360,366,258836
90,62,-75,1367,370,258882
55,70,-106,1291,423,258801
7,75,-69,1267,348,258789
-13,55,-63,1270,377,258755
-58,86,-34,1365,338,258811
-99,92,-52,1306,353,258833
-134,122,8,1313,374,258858
-167,122,-27,1255,406,258831
-194,135,29,1302,342,258749
-187,130,8,1295,377,258874
-195,130,61,1341,424,258853
-216,128,64,1283,420,258777
-214,147,119,1271,315,258785
-221,158,110,1317,324,258813
-235,176,117,1320,360,258801
-265,188,108,1320,359,258788
-275,181,70,1310,380,258882
-296,170,93,1349,374,258848
-313,129,68,1359,324,258768
-325,126,110,1314,329,258784
-310,72,65,1278,383,258808
-314,60,123,1254,383,258795
-292,4,46,1279,369,258859
-320,8,90,1363,320,258828
-294,-20,23,1343,364,258799
-291,-26,61,1335,423,258899
-286,-56,23,1307,388,258796
-265,-79,63,1363,408,258818
-268,-108,103,1362,372,258810
-245,-105,115,1321,409,258903
-225,-91,139,1235,330,258916
-217,-99,123,1309,351,258800
-189,-82,124,1375,355,258859
-184,-83,71,1314,339,258831
-168,-83,92,1300,333,258854
-153,-103,23,1347,322,258907
-113,-103,65,1402,325,258785
-114,-70,39,1357,331,258789
-93,-37,41,1307,369,258843
-60,7,25,1291,409,258894
-59,51,19,1337,472,258885
-53,96,8,1272,425,258783
-20,110,-27,1307,366,258686
-4,110,-9,1286,415,258721
18,90,-10,1318,350,258736
45,110,32,1237,389,258769
65,124,21,1318,390,258883
92,153,39,1341,391,258828
124,170,7,1310,425,258902
153,193,13,1313,369,258825
177,197,-19,1303,271,258827
209,179,-25,1297,375,258858
242,161,-30,1262,390,258805
293,163,-4,1306,382,258802
314,171,-10,1378,387,258820
321,169,2,1295,362,258778
337,177,-7,1292,390,258771
353,176,-29,1290,382,258797
331,158,-57,1304,442,258820
327,121,-81,1291,329,258906
327,105,-96,1330,394,258896
318,71,-75,1341,418,258904
308,83,-38,1280,356,258908
284,73,-34,1265,339,258829
263,89,5,1339,348,258882
239,96,-46,1331,343,258906
211,91,4,1317,454,258850
190,70,-41,1296,346,258810
191,41,-18,1317,381,258824
170,36,11,1367,409,258899
164,13,41,1318,359,258838
141,6,87,1283,322,258872
131,-7,87,1277,346,258833
99,0,74,1327,363,258918
84,-33,56,1341,392,258820
61,-56,48,1372,343,258846
49,-83,6,1296,440,258800
62,-80,68,1315,423,258822
29,-71,61,1292,363,258813
18,-51,102,1295,372,258734
3,-28,101,1293,396,258814
-5,1,92,1308,354,258873
-30,21,110,1345,372,258919
-54,29,88,1291,407,258863
-46,45,113,1283,419,258879
-56,61,110,1307,405,258860
-87,70,117,1313,331,258898
-94,88,158,1361,397,258866
-104,92,107,1314,355,258827
-145,103,104,1270,409,258884
-174,106,30,1299,388,258835
-187,106,-2,1389,318,258942
-198,125,-39,1417,344,258845
-193,138,-72,1332,388,258813
-206,177,-89,1331,380,258761
-205,190,-98,1260,411,258882
-187,210,-115,1312,379,258781
-199,224,-111,1291,387,258795
-192,225,-112,1309,365,258741
-208,221,-103,1288,385,258834
-195,212,-42,1272,429,258815
-213,221,-44,1230,369,258853
-229,194,22,1222,315,258753
-228,174,59,1317,363,258773
-253,143,85,1276,417,258912
-293,124,121,1378,351,258874
-342,107,108,1338,362,258664
-383,79,131,1377,410,258869
-415,68,137,1356,399,258841
-425,71,123,1343,458,258821
-461,85,123,1356,388,258842
-458,87,117,1331,324,258895
-462,83,107,1289,407,258941
-459,63,108,1327,393,258893
-434,47,62,1371,400,258795
-410,17,75,1287,397,258747
-376,17,43,1259,395,258766
-330,28,54,1303,435,258927
-290,34,3,1315,391,258906
-244,53,-9,1263,363,258936
-211,53,-27,1377,407,258863
-152,37,-67,1346,377,258822
-89,20,-90,1295,382,258754
-108,28,-95,1264,401,258844
-35,16,-110,1286,371,258817
5,25,-116,1313,361,258911
38,61,-123,1351,344,258944
89,85,-116,1355,401,258900
123,115,-103,1387,351,258880
156,106,-84,1317,384,258887
180,102,-69,1350,379,258839
211,104,-21,1290,373,258697
242,110,-4,1275,371,258843
240,119,23,1346,328,258772
229,130,45,1333,343,258833
268,141,42,1276,420,258747
297,132,57,1368,452,258757
308,130,74,1407,349,258800
333,109,73,1312,363,258877
353,104,86,1271,322,258899
360,99,72,1212,339,258994
346,96,64,1234,259,258788
353,96,52,1232,271,258745
361,110,61,1273,333,258696
370,103,48,1295,372,258900
378,94,60,1299,407,258847
382,73,70,1285,382,258855
386,36,68,1308,387,258891
360,14,74,1330,384,258986
330,-2,76,1349,404,258927
304,-8,85,1308,463,258785
280,-22,87,1351,350,258871
240,2,105,1306,290,258824
207,-6,137,1326,332,258758
184,-23,141,1246,411,258805
151,-50,133,1242,387,258736
104,-77,114,1315,364,258758
57,-71,101,1283,410,258865
42,-69,69,1360,404,258919
32,-49,46,1279,420,258953
16,-16,30,1340,326,258900
24,-7,-5,1304,386,258788
29,-12,-18,1298,425,258821
43,-20,-39,1429,370,258692
41,-26,-57,1380,424,258779
47,-22,-57,1270,374,258845
45,5,-61,1337,377,258784
47,25,-42,1301,382,258855
48,46,-36,1234,477,258793
25,72,13,1313,450,258858
17,68,-2,1251,351,258787
16,73,41,1267,364,258776
-11,89,22,1346,384,258833
-37,109,35,1362,339,258816
-74,138,37,1360,410,258783
-110,191,41,1262,391,258780
-151,212,76,1270,324,258754
-192,201,81,1403,429,258817
-212,193,106,1340,376,258888
-239,175,89,1300,418,258911
-279,179,88,1254,383,258893
-321,178,94,1314,361,258936
-347,181,96,1284,352,258795
-410,184,81,1270,424,258866
-444,172,99,1301,462,258871
-463,140,60,1302,435,258873
-507,123,63,1331,394,258833
-511,100,41,1327,340,258817
-518,92,27,1302,409,258781
-520,103,2,1359,402,258853
-520,94,-24,1319,394,258794
-535,76,-56,1285,344,258794
-544,62,-71,1329,364,258791
-540,40,-88,1287,361,258836
-541,26,-112,1283,342,258798
-523,36,-108,1338,403,258760
-500,30,-125,1311,401,258798
-483,48,-98,1314,351,258874
-453,70,-102,1285,338,258856
-437,86,-60,1253,353,258807
-424,91,-56,1346,368,258838
-369,94,-47,1417,385,258827
-323,102,-22,1302,362,258752
-269,104,-7,1376,383,258811
-183,91,41,1317,414,258746
-112,77,21,1305,389,258777
-52,109,64,1378,414,258839
-6,108,77,1350,426,258865
47,121,85,1287,432,258863
96,136,90,1287,344,258844
155,144,109,1294,259,258826
233,161,124,1283,376,258835
298,167,139,1315,392,258830
363,157,124,1375,364,258771
398,169,93,1373,394,258813
407,166,81,1310,387,258818
406,150,23,1341,354,258813
414,152,16,1300,332,258781
430,118,1,1315,326,258880
437,104,10,1325,377,258739
456,78,4,1346,392,258853
482,50,51,1362,311,258878
488,12,29,1319,334,258911
484,0,24,1298,341,258839
499,-29,16,1306,329,258814
497,-40,16,1346,421,258834
526,-58,25,1347,398,258797
505,-63,38,1312,355,258901
518,-62,71,1426,364,258828
522,-83,90,1323,338,258886
510,-98,94,1264,299,258837
492,-92,79,1352,323,258737
476,-90,73,1319,361,258871
453,-102,59,1314,333,258844
417,-89,55,1277,383,258894
390,-88,21,1299,378,258863
366,-76,20,1300,354,258781
333,-55,8,1314,361,258921
300,-35,-2,1286,306,258977
283,-16,-32,1268,361,258881
259,17,-33,1287,423,258858
232,31,-74,1284,414,258854
184,77,-59,1282,401,258819
142,117,-71,1284,322,258747
94,147,-52,1316,404,258711
41,170,-18,1375,416,258864
-19,206,-14,1292,366,258862
-54,203,-5,1341,367,258888
-70,211,-47,1332,415,258866
-116,220,-13,1317,377,258776
-171,202,-42,1341,392,258829
-236,203,-25,1292,347,258795
-292,208,-43,1315,386,258848
-342,221,-10,1322,410,258963
-375,226,-9,1354,398,258886
-429,233,31,1291,377,258903
-440,210,26,1311,379,258955
-487,211,39,1322,375,258794
-525,170,67,1303,377,258774
-559,139,75,1245,301,258754
-615,110,97,1330,357,258822
-656,91,110,1310,351,258734
-694,92,154,1322,353,258853
-707,84,182,1332,317,258852
-709,79,192,1265,355,258857
-708,59,207,1275,318,258805
-680,47,208,1340,415,258672
-673,21,203,1344,422,258728
-669,-8,172,1370,380,258834
-639,-6,123,1297,356,258765
-620,21,113,1277,345,258768
-606,37,108,1275,361,258789
-569,75,85,1264,380,258862
-523,62,44,1291,343,258892
-489,81,37,1387,388,258942
-447,65,-43,1269,283,258836
-387,60,-69,1268,305,258813
-329,62,-152,1382,353,258772
-289,88,-162,1316,394,258814
-227,99,-168,1276,395,258910
-194,135,-151,1295,409,258833
-131,131,-150,1241,384,258873
-55,111,-158,1353,468,258893
-2,97,-170,1295,371,258796
69,88,-158,1305,346,258768
113,68,-132,1386,447,258857
181,71,-119,1328,335,258930
212,84,-59,1301,335,258855
242,96,-22,1305,420,258772
271,112,55,1298,377,258811
309,105,57,1299,398,258751
333,124,99,1311,384,258780
358,109,79,1264,257,258920
395,99,139,1315,239,258761
408,86,122,1304,388,258770
408,79,155,1302,348,258766
422,57,128,1333,353,258685
417,63,138,1305,404,258727
431,50,97,1289,374,258894
449,52,91,1286,389,258865
470,39,53,1313,416,258812
496,23,56,1305,343,258755
506,21,41,1239,311,258763
507,20,26,1327,289,258961
518,14,21,1357,329,258815
502,28,-7,1403,383,258791
512,40,-13,1376,379,258906
533,17,-55,1335,354,258950
474,54,-25,1370,361,258755
508,33,-76,1388,450,258807
490,12,-63,1356,387,258832
481,5,-109,1320,373,258888
432,-3,-58,1302,368,258876
413,-31,-95,1315,412,258884
371,5,-37,1312,338,258750
314,1,-43,1253,332,258849
280,17,14,1295,375,258876
254,27,32,1215,382,258798
198,-2,81,1364,399,258868
166,-1,102,1338,391,258870
116,-14,123,1331,382,258720
100,-17,150,1269,366,258762
35,20,138,1314,347,258858
12,13,124,1320,366,258873
-30,23,180,1235,288,258819
-80,31,101,1309,357,258803
-116,12,170,1332,365,258740
-168,5,65,1298,376,258794
-178,-7,100,1326,383,258919
-234,-5,78,1333,419,258825
-256,40,46,1344,324,258816
-251,50,66,1292,347,258876
-292,43,49,1271,374,258780
-348,77,48,1286,318,258749
-372,70,-16,1316,317,258797
-364,71,40,1240,369,258827
-454,115,-23,1255,420,258843
-500,137,-20,1307,369,258821
-440,144,32,1263,407,258866
-500,170,36,1390,475,258890
-537,161,-9,1327,430,258920
-513,166,46,1370,369,258934
-527,194,-40,1325,400,258927
-551,214,-22,1300,339,258810
-549,234,-42,1250,439,258813
-530,253,4,1300,413,258939
-527,249,-29,1338,392,258934
-527,266,-12,1294,355,258884
-513,254,-14,1309,404,258793
-505,219,-31,1332,413,258797
-486,236,-59,1308,384,258776
-454,201,-69,1281,426,258849
-412,206,6,1268,389,258846
-390,188,-35,1319,346,258871
-325,159,47,1328,403,258790
-298,150,21,1303,369,258809
-265,143,47,1325,379,258845
-211,97,22,1330,409,258763
-178,116,60,1371,394,258791
-136,80,13,1294,358,258809
-105,75,76,1236,336,258800
-53,37,50,1351,380,258812
-37,33,109,1315,346,258812
-28,26,114,1263,396,258830
-3,33,87,1307,297,258769
60,39,53,1346,358,258725
69,16,51,1357,336,258915
94,4,5,1344,320,258818
157,13,-36,1332,452,258742
197,11,13,1422,380,258782
216,14,-10,1317,389,258822
249,24,9,1328,389,258822
268,25,30,1322,335,258830
351,19,-2,1370,398,258898
371,-17,26,1289,387,258932
409,-28,-74,1274,390,258854
461,-17,2,1346,311,258801
431,-10,-16,1325,336,258810
449,7,17,1279,327,258767
436,58,36,1251,365,258899
403,86,109,1262,368,258913
407,116,56,1270,412,258907
422,78,56,1337,379,258867
389,75,34,1292,372,258846
404,53,35,1290,402,258896
376,41,91,1304,355,258841
357,63,15,1401,283,258826
332,74,65,1295,435,258802
296,72,44,1265,408,258794
265,64,70,1303,411,258848
206,14,27,1354,349,258898
170,-6,-22,1356,387,258798
173,-23,-8,1340,390,258734
128,-16,27,1406,374,258779
110,4,-29,1330,318,258656
100,13,74,1365,406,258717
61,31,12,1325,413,258801
23,76,95,1335,334,258826
8,27,39,1358,405,258867
-19,28,39,1377,296,258884
-17,35,-12,1302,368,258839
-32,42,30,1356,371,258794
-69,63,-22,1267,348,258941
-46,71,31,1270,383,258810
-75,90,81,1279,398,258789
-146,106,46,1264,358,258823
-106,97,73,1342,385,258915
-85,76,99,1310,376,258831
-145,90,61,1293,430,258844
-102,81,-7,1305,397,258836
-44,91,121,1269,367,258849
-143,127,-8,1325,399,258903
-134,111,72,1209,376,258827
-103,126,131,1315,418,258916
-184,134,73,1347,435,258926
-191,77,60,1270,433,258860
-190,87,46,1354,370,258853
-230,89,47,1340,396,258884
-239,59,3,1335,445,258755
-231,84,36,1312,361,258897
-263,124,-25,1289,349,258822
-261,118,31,1258,415,258819
-290,149,0,1331,399,258676
-316,133,-78,1324,409,258720
-271,99,-16,1266,406,258851
-329,95,-140,1298,413,258953
-355,96,-116,1277,398,258820
-290,105,-82,1335,442,258891
-346,119,-90,1360,332,258890
-367,144,-38,1301,331,258812
-293,139,15,1402,405,258780
-319,109,-21,1377,331,258759
-333,99,-9,1369,385,258870
-263,92,5,1225,371,258869
-246,64,13,1365,369,258919
-236,110,-7,1312,379,258791
-117,114,62,1318,364,258850
-159,129,51,1324,381,258846
-157,166,24,1391,357,258953
-45,132,101,1246,351,258905
-88,126,15,1303,332,258833
-73,143,11,1295,302,258753
49,75,22,1301,339,258798
54,110,50,1334,351,258851
72,129,54,1208,305,258798
133,65,-84,1285,341,258853
129,142,202,1322,354,258852
99,105,30,1408,334,258826
169,36,17,1296,429,258813
113,63,122,1348,427,258883
72,30,-55,1213,417,258878
183,-31,56,1278,357,258818
127,34,50,1357,320,258809
40,19,14,1377,368,258806
122,19,-15,1250,400,258801
166,69,99,1342,454,258907
37,50,-41,1247,409,258839
63,0,13,1314,424,258848
134,11,-24,1284,331,258774
71,-18,-10,1326,400,258899
36,-42,-37,1284,357,258869
112,13,8,1223,334,258815
114,13,64,1295,376,258789
74,39,4,1261,433,258793
117,83,77,1256,381,258825
148,13,82,1316,340,258919
117,-14,18,1301,297,258818
144,-5,9,1328,340,258777
203,-9,26,1308,423,258710
200,18,34,1342,329,258781
196,80,-29,1360,340,258877
240,149,82,1331,320,258830
245,145,27,1328,354,258747
212,143,6,1350,276,258839
240,91,-50,1346,319,258889
240,83,-68,1228,348,258772
199,101,-65,1331,362,258779
239,99,-48,1339,407,258913
223,147,17,1332,378,258757
174,162,53,1307,307,258848
167,137,81,1351,361,258876
125,106,98,1319,365,258803
71,44,61,1320,338,258780
66,23,87,1318,414,258835
31,58,101,1323,342,258876
1,62,143,1300,386,258846
14,88,184,1323,355,258797
-41,124,197,1343,405,258725
-102,115,146,1277,333,258870
-124,73,127,1324,411,258872
-179,22,17,1350,377,258853
-236,-8,-28,1265,360,258869
-241,-19,-20,1325,399,258935
-280,-30,-25,1312,438,258860
-330,-12,-9,1279,433,258973
-336,23,-2,1276,411,258931
-356,48,19,1327,398,258877
-387,46,-1,1274,374,258803
-389,45,-31,1316,374,258803
-392,41,-33,1340,364,258772
-389,65,3,1303,367,258834
-395,87,15,1277,361,258889
-373,120,72,1264,390,258907
-352,166,94,1235,396,258866
-345,184,88,1274,382,258915
-307,203,84,1270,410,258821
-284,170,69,1297,393,258706
-264,153,44,1340,395,258774
-224,167,52,1368,324,258841
-168,170,59,1261,411,258829
-135,207,37,1272,392,258830
-96,260,33,1327,376,258829
-71,291,-14,1335,319,258828
-53,302,-49,1415,332,258807
-14,273,-76,1354,360,258821
5,199,-156,1323,377,258824
-24,204,-103,1290,371,258668
50,152,-100,1275,438,258853
58,162,-111,1337,389,258867
59,177,-78,1261,384,258786
109,150,-29,1262,431,258828
80,87,-60,1326,389,258799
76,43,-6,1356,386,258775
93,-82,8,1311,400,258784
53,-76,48,1298,360,258860
59,-131,94,1333,397,258836
71,-112,144,1338,316,258872
39,-67,143,1344,358,258871
37,-63,210,1354,398,258677
47,-76,199,1310,447,258772
25,-85,233,1310,467,258829
40,-141,169,1264,402,258699
81,-160,132,1302,413,258722
72,-121,106,1334,400,258790
119,-118,85,1343,327,258803
110,-43,76,1361,353,258831
126,-47,50,1304,371,258730
136,-57,49,1365,338,258822
141,-39,-14,1372,346,258935
190,-137,-24,1338,349,258872
169,-85,-70,1285,373,258847
204,-93,-115,1337,392,258808
234,-49,-30,1337,297,258767
246,17,-87,1377,298,258907
214,79,59,1410,325,258913
286,58,-20,1382,429,258887
254,92,70,1400,339,258857
214,66,-5,1345,364,258869
235,79,21,1260,305,258750
210,102,13,1361,333,258730
213,132,33,1378,332,258743
196,189,56,1361,366,258819
181,279,108,1292,389,258846
185,262,86,1288,412,258872
197,278,28,1340,437,258790
157,215,36,1362,371,258798
115,209,-45,1312,317,258857
131,152,-35,1340,402,258857
115,176,-27,1319,368,258820
83,163,-7,1354,459,258829
64,204,67,1328,454,258828
36,182,25,1288,444,258915
2,152,71,1277,449,258828
-49,89,-5,1284,389,258927
-97,47,10,1315,408,258902
-159,52,-8,1282,391,258880
-152,64,-22,1225,349,258829
-179,105,47,1315,439,258862
-226,154,76,1320,427,258847
-238,96,50,1293,345,258878
-256,114,87,1251,357,258794
-276,35,-4,1237,324,258856
-314,28,10,1268,413,258893
-286,36,-14,1209,399,258769
-302,40,33,1328,405,258815
-312,96,-16,1343,344,258858
-296,124,90,1314,420,258854
-344,93,11,1310,414,258848
-309,114,24,1343,299,258919
-323,60,-25,1257,311,258846
-305,74,-48,1323,358,258811
-279,96,-44,1262,347,258842
-265,121,-50,1333,357,258847
-214,148,-70,1386,400,258779
-223,259,18,1388,393,258891
-85,85,-162,1336,396,258873
-254,294,307,1334,418,258886
-189,58,-643,1246,409,258851
-64,216,145,1453,300,258630
-230,170,-143,1221,398,258959
-288,244,-64,1316,376,258788
-167,134,78,1216,411,258785
-44,167,-62,1475,332,258869
-214,221,28,1300,326,258889
-151,206,230,1316,397,258871
-76,149,-14,1287,320,258748
23,166,172,1373,347,258831
-80,125,186,1297,330,258748
-61,111,95,1269,340,258785
18,43,185,1323,457,258857
55,30,-8,1292,375,258846
55,124,35,1359,382,258860
-39,109,74,1282,274,258921
74,34,-42,1364,366,258834
131,3,108,1311,330,258889
82,-111,-191,1400,347,258857
95,-7,66,1251,299,258849
149,-98,-100,1299,324,258898
202,-38,114,1283,328,258743
200,4,-24,1279,386,258778
275,-41,114,1331,411,258748
239,-52,31,1334,373,258840
249,-133,231,1345,430,258914
215,-130,-23,1307,419,258879
247,-167,166,1316,411,258801
263,-117,23,1253,393,258808
229,-39,27,1351,409,258795
218,-50,107,1315,403,258875
233,2,23,1297,381,258798
210,-157,41,1266,416,258776
172,-155,34,1303,318,258764
167,-212,-149,1279,423,258923
210,-174,-55,1302,377,258840
79,-49,88,1322,352,258904
133,0,99,1297,332,258988
161,-27,203,1338,382,258837
184,-33,16,1330,358,258907
115,-69,69,1430,386,258819
75,25,59,1264,389,258779
87,55,31,1292,449,258881
66,107,136,1374,387,258898
66,158,30,1298,393,258674
97,147,89,1334,403,258715
126,131,5,1253,349,258698
76,164,-47,1286,375,258801
53,105,-46,1256,459,258859
-17,188,-71,1372,326,258736
3,132,-33,1306,326,258881
-52,194,118,1298,308,258853
-182,265,-32,1292,304,258908
-140,277,121,1262,379,258910
-173,264,26,1310,352,258787
-218,272,73,1327,416,258795
-264,189,72,1296,410,258854
-239,181,10,1345,343,258845
-249,177,51,1334,346,258725
-330,194,126,1324,342,258854
-393,283,53,1361,345,258859
-327,251,137,1234,358,258865
-347,251,-13,1370,356,258870
-385,232,-30,1307,385,258840
-339,89,-20,1287,413,258759
-321,111,-133,1324,409,258716
-329,57,-64,1364,420,258858
-337,111,-119,1292,347,258759
-353,137,-104,1286,368,258748
-322,124,-46,1349,355,258850
-305,113,-80,1296,434,258839
-269,67,-64,1259,408,258866
-246,15,-80,1301,390,258857
-192,51,-44,1272,364,258856
-184,32,-23,1377,374,258786
-195,124,37,1336,392,258799
-159,128,62,1338,419,258779
-158,143,94,1293,385,258788
-126,144,41,1280,359,258868
-94,90,56,1293,364,258967
-116,110,74,1387,387,258816
-83,88,46,1322,334,258842
-60,66,165,1314,385,258860
-43,97,38,1253,398,258891
-82,149,109,1249,397,258972
-23,170,72,1307,342,258949
-19,263,44,1309,317,258834
5,156,71,1354,384,258839
-34,227,-6,1246,352,258883
44,142,-40,1363,348,258875
118,66,-19,1311,312,258882
45,152,-118,1325,302,258887
81,132,-45,1311,414,258784
233,104,11,1282,388,258862
202,168,-41,1383,401,258883
125,76,-51,1215,336,258867
250,15,34,1314,346,258789
291,2,-62,1279,362,258756
234,-50,17,1488,340,258946
217,-19,15,1363,387,258825
334,-21,59,1328,397,258850
363,-58,75,1384,361,258816
251,-23,81,1305,343,258790
241,-95,211,1357,460,258831
327,-150,127,1309,409,258905
333,-227,185,1349,391,258763
250,-280,165,1262,392,258761
312,-189,152,1370,417,258910
331,-121,143,1312,400,258830
317,-61,207,1311,348,258776
243,72,157,1319,388,258779
298,-45,107,1297,464,258904
322,-72,95,1402,326,258741
297,-64,39,1337,373,258834
250,-105,81,1318,409,258848
313,-78,-43,1281,375,258841
337,-65,170,1455,457,258680
213,-7,-28,1298,394,258812
204,43,43,1332,381,258835
240,-89,-16,1274,375,258808
212,6,-53,1373,331,258830
147,-19,-76,1298,388,258800
126,6,-28,1307,325,258812
179,117,-69,1278,308,258855
161,105,1,1358,460,258941
103,161,-76,1271,399,258903
90,150,-20,1315,419,258856
29,66,-98,1332,357,258824
13,101,-56,1344,358,258753
-77,-2,-27,1323,413,258735
-156,93,-32,1318,354,258743
-201,132,-51,1323,348,258836
-206,123,50,1332,369,258897
-311,165,60,1342,363,258871
-417,132,-25,1263,395,258824
-342,81,81,1352,435,258795
-401,92,-30,1341,382,258831
-427,72,70,1339,330,258837
-451,99,24,1234,304,258903
-431,139,77,1337,357,258726
-447,165,45,1326,332,258785
-468,235,18,1283,384,258819
-477,204,-59,1301,348,258879
-507,157,-82,1367,392,258796
-484,175,-62,1319,330,258722
-510,158,-68,1318,385,258729
-594,190,-29,1278,380,258769
-516,244,-41,1275,409,258885
-510,225,16,1277,427,258901
-584,289,-65,1217,407,258872
-537,217,19,1246,418,258926
-507,190,4,1310,330,258884
-503,198,81,1200,405,258939
-494,183,26,1241,406,258845
-442,275,119,1283,412,258950
-400,277,92,1291,456,258954
-372,310,92,1370,409,258806
-336,301,38,1341,444,258884
-256,224,12,1262,325,258904
-221,217,8,1320,403,258788
-172,150,6,1353,370,258761
-118,150,58,1396,353,258809
-109,170,48,1346,398,258756
-54,108,20,1290,366,258893
10,145,2,1397,412,258776
26,86,33,1276,468,258819
52,70,9,1271,480,258824
118,82,70,1220,383,258854
149,16,84,1309,395,258879
184,29,37,1321,323,258768
222,6,34,1419,334,258779
267,5,53,1321,439,258751
321,17,8,1274,352,258859
352,6,26,1347,341,258788
331,-29,4,1313,408,258897
408,-69,-2,1346,444,258841
443,-125,54,1293,367,258774
398,-136,-5,1299,362,258786
428,-124,43,1304,328,258734
455,-107,72,1325,389,258783
413,-81,35,1323,365,258863
426,-81,47,1233,376,258860
453,-96,-1,1350,381,258860
409,-82,43,1329,434,258878
431,-93,26,1329,367,258869
480,-39,37,1347,334,258879
457,-16,56,1283,461,258798
393,-15,36,1299,436,258871
455,12,86,1220,420,258768
420,-48,65,1323,399,258829
439,-49,0,1305,365,258790
494,-35,124,1254,421,258755
433,-30,52,1375,456,258807
437,52,46,1298,404,258862
486,76,75,1257,441,258812
370,113,-9,1376,333,258773
374,129,-46,1260,291,258780
423,39,70,1313,355,258728
319,49,-14,1399,281,258805
328,-25,73,1294,384,258832
300,-47,138,1350,390,258857
189,-16,99,1304,361,258801
171,-8,63,1331,368,258831
99,132,73,1378,313,258736
37,173,-16,1355,370,258826
22,165,-10,1364,374,258877
-56,189,-38,1331,353,258818
-126,161,-107,1270,318,258776
-116,112,-48,1266,352,258809
-250,161,-10,1331,456,258926
-331,125,-76,1293,461,258862
-277,110,64,1354,377,258788
-369,74,-1,1375,336,258867
-475,29,-1,1302,307,258885
-402,-41,68,1253,376,258822
-560,34,54,1265,396,258749
-599,79,17,1250,413,258752
-501,152,149,1216,335,258793
-627,223,49,1285,443,258841
-658,204,-24,1303,418,258885
-517,102,91,1303,350,258835
-607,101,-2,1344,317,258811
-600,60,60,1292,374,258732
-488,25,142,1329,364,258880
-603,50,136,1340,376,258927
-588,77,13,1272,351,258764
-520,57,113,1297,374,258845
-614,137,-99,1360,367,258894
-609,209,-75,1286,335,258828
-500,210,-21,1363,385,258805
-567,257,-79,1301,312,258829
-523,257,-111,1217,300,258857
-425,210,-58,1266,356,258917
-434,213,-127,1263,347,258833
-362,249,-137,1272,389,258932
-281,291,27,1307,399,258873
-287,279,-85,1281,354,258911
-193,311,88,1349,326,258850
-191,257,76,1371,373,258886
-171,226,42,1312,353,258862
-106,263,137,1337,367,258922
-92,249,100,1326,378,258868
-58,225,134,1359,340,258677
27,189,159,1290,368,258935
60,134,108,1346,420,258963
92,71,128,1286,376,258815
152,1,76,1333,426,258794
166,53,89,1259,455,258724
200,27,40,1348,408,258752
291,26,51,1387,362,258821
275,91,22,1308,415,258803
314,59,-127,1282,314,258788
392,28,29,1270,360,258764
370,-31,-198,1316,374,258926
450,-81,-51,1313,382,258871
482,-107,-116,1300,343,258870
475,-124,-73,1332,370,258902
509,-123,-77,1344,392,258779
528,-123,-10,1391,365,258829
515,-135,-51,1341,370,258942
538,-132,111,1292,382,258904
525,-129,64,1295,303,258875
504,-123,137,1312,362,258877
521,-157,64,1232,446,258779
492,-120,139,1330,364,258789
486,-119,46,1327,347,258909
522,-110,112,1322,389,258781
461,-59,97,1372,399,258741
495,-36,75,1253,397,258766
489,-56,123,1300,361,258772
395,-20,-15,1307,393,258839
397,-26,62,1291,388,258863
317,-28,9,1358,403,258762
259,-8,-3,1305,432,258827
216,24,19,1295,291,258823
178,13,26,1286,339,258737
116,49,12,1332,393,258823
118,30,43,1389,466,258886
81,72,54,1385,469,258774
40,58,-31,1334,466,258791
78,83,2,1313,356,258769
6,149,16,1347,370,258766
-30,158,-62,1262,393,258828
1,139,68,1326,398,258838
-58,145,-6,1324,398,258838
-108,107,23,1279,428,258912
-139,128,0,1339,336,258861
-231,128,17,1320,377,258850
-258,149,3,1268,423,258809
-305,143,-7,1312,383,258810
-373,154,8,1272,313,258743
-446,156,64,1323,278,258787
-420,114,86,1246,340,258811
-511,124,153,1365,431,258909
-560,162,15,1324,379,258871
-605,193,181,1380,365,258872
-692,155,-12,1342,428,258794
-681,168,102,1286,380,258864
-728,160,41,1301,351,258853
-733,169,42,1269,356,258828
-698,186,138,1296,370,258920
-707,211,-32,1248,367,258845
-713,227,112,1296,394,258729
-691,221,-75,1314,384,258826
-698,217,16,1353,364,258935
-713,201,-105,1307,345,258800
-620,186,-71,1318,426,258863
-653,174,-48,1341,352,258843
-618,181,-109,1329,308,258798
-538,173,-7,1293,371,258746
-550,165,-110,1306,363,258804
-447,191,-61,1303,369,258878
-391,183,-41,1298,356,258758
-339,215,-40,1273,288,258762
-226,202,8,1358,335,258864
-194,199,98,1362,386,258840
-154,191,67,1272,367,258915
-112,180,120,1224,357,258846
-70,139,93,1327,391,258970
-49,117,58,1263,349,258807
12,78,96,1310,407,258769
94,73,126,1315,410,258813
75,24,85,1271,366,258838
162,28,134,1265,362,258866
217,53,109,1302,407,258835
250,32,40,1383,366,258892
350,30,133,1277,345,258847
350,9,-9,1299,332,258832
439,-3,117,1376,343,258790
472,-45,-15,1324,351,258760
512,-42,90,1324,387,258720
520,-73,17,1339,397,258787
589,-62,96,1288,391,258903
580,-83,54,1281,459,258878
603,-84,-17,1279,370,258787
608,-99,81,1267,351,258762
623,-123,-131,1335,232,258821
648,-110,91,1385,283,258861
638,-133,-80,1332,301,258872
632,-117,87,1342,349,258849
623,-155,-112,1261,434,258848
627,-142,28,1345,435,258777
562,-150,-153,1363,372,258802
599,-128,14,1235,321,258755
578,-115,-36,1316,339,258863
549,-60,22,1335,419,258774
555,-58,65,1337,450,258787
545,-6,-20,1322,393,258746
525,4,46,1243,438,258758
533,58,-65,1279,370,258799
473,81,80,1326,304,258739
450,89,-106,1255,309,258783
455,96,70,1264,413,258744
375,113,-93,1331,435,258749
325,117,1,1245,416,258711
291,133,-81,1264,407,258906
251,135,6,1311,415,258938
202,150,-108,1338,379,258836
163,158,92,1332,336,258790
131,128,-86,1261,352,258845
90,178,83,1272,362,258888
6,184,9,1280,358,258918
-70,274,49,1238,343,258726
-110,261,51,1342,406,258907
-168,268,7,1380,401,258917
-293,244,87,1314,445,258853
-329,203,-20,1358,358,258863
-383,177,183,1358,380,258813
-480,168,-17,1334,408,258808
-529,122,254,1272,415,258878
-583,113,29,1277,378,258868
-616,70,260,1304,350,258800
-674,36,-13,1337,394,258774
-699,32,166,1273,377,258727
-699,8,-80,1318,386,258821
-698,70,124,1304,349,258824
-736,34,-31,1351,302,258925
-733,72,94,1326,350,258783
-762,49,-8,1300,363,258767
-764,95,-31,1279,292,258760
-802,104,-18,1271,401,258872
-791,125,-122,1336,397,258811
-762,102,53,1297,453,258780
-768,124,-95,1364,434,258748
-735,96,67,1300,383,258785
-725,127,-89,1295,376,258760
-672,126,35,1247,411,258783
-681,162,-127,1333,362,258872
-626,163,42,1340,375,258861
-606,144,-77,1317,432,258899
-580,160,128,1274,389,258772
-559,143,-9,1322,407,258860
-503,164,150,1334,422,258777
-483,171,94,1352,391,258777
-433,199,137,1281,292,258811
-339,199,161,1328,365,258916
-265,175,71,1353,357,258841
-212,155,152,1315,301,258644
-152,157,65,1346,312,258689
-79,130,96,1387,324,258837
-46,140,78,1334,352,258792
-9,117,77,1309,364,258827
6,97,0,1282,417,258843
81,63,24,1300,370,258837
118,-5,-80,1352,398,258870
173,-34,13,1247,392,258773
269,-61,-59,1281,389,258898
349,-75,26,1268,366,258824
388,-77,48,1246,367,258882
426,-68,27,1336,422,258834
466,-60,56,1318,347,258867
523,-101,-16,1363,369,258817
550,-100,73,1303,370,258809
587,-106,46,1303,327,258872
636,-109,95,1322,309,258850
653,-107,104,1311,340,258871
653,-106,102,1264,373,258792
658,-90,27,1343,349,258809
677,-90,41,1276,395,258734
668,-105,-75,1383,293,258689
681,-54,53,1352,425,258652
683,-35,-66,1327,402,258769
649,33,19,1305,342,258755
619,32,1,1344,308,258821
602,94,-50,1321,360,258781
547,135,-18,1303,381,258799
528,137,-66,1343,378,258653
498,164,-1,1367,336,258863
471,169,-5,1331,327,258873
453,164,16,1303,395,258850
453,160,-44,1350,373,258836
430,151,-3,1260,374,258801
383,170,-94,1264,398,258767
351,197,-12,1375,353,258887
277,179,-83,1306,419,258856
222,181,-3,1258,380,258855
176,93,-93,1232,390,258896
115,94,-77,1269,370,258966
72,58,-49,1360,351,258804
-16,79,-11,1334,353,258730
-46,93,30,1335,357,258863
-131,82,41,1343,364,258927
-179,64,68,1372,410,258898
-247,44,65,1276,396,258869
-281,17,42,1369,338,258880
-347,66,102,1263,376,258872
-387,61,102,1293,412,258790
-436,107,143,1337,399,258947
-473,74,139,1402,390,258951
-504,50,65,1352,339,258945
-526,42,75,1314,378,258829
-520,44,24,1292,423,258911
-522,84,54,1356,480,258899
-461,114,70,1351,449,258870
-474,144,48,1344,376,258821
-490,152,72,1320,429,258923
-455,123,-17,1318,382,258843
-446,151,36,1330,344,258812
-461,173,-1,1311,352,258731
-421,184,13,1299,405,258780
-379,163,59,1313,474,258874
-361,153,14,1257,392,258830
-348,179,19,1187,338,258799
-301,148,-1,1297,461,258709
-286,166,-37,1320,371,258784
-230,190,0,1255,405,258741
-209,151,-15,1301,391,258808
-167,139,1,1314,345,258783
-144,90,19,1286,391,258827
-118,82,-10,1328,373,258863
-99,79,60,1324,392,258882
-66,76,24,1296,399,258874
-42,114,103,1297,427,258849
-3,93,84,1374,422,258935
21,101,127,1250,358,258857
29,54,84,1300,445,258890
75,32,66,1370,431,258826
82,86,105,1349,347,258774
117,86,86,1360,335,258835
121,50,121,1345,360,258793
128,6,15,1390,439,258778
140,-56,36,1361,401,258833
140,-73,-43,1283,363,258752
158,-64,1,1242,360,258786
182,-35,-15,1259,380,258849
223,-47,24,1279,388,258827
240,-45,-41,1267,384,258817
221,-49,-58,1296,346,258737
228,-50,-100,1318,332,258802
236,-32,-130,1354,389,258793
243,-7,-62,1358,353,258828
234,24,-77,1189,381,258753
271,11,70,1327,350,258822
271,-6,-3,1227,314,258914
230,9,79,1334,330,258858
225,24,31,1297,401,258865
248,39,18,1349,375,258872
249,72,96,1333,309,258875
218,69,72,1287,340,258932
197,78,145,1327,393,258765
209,44,101,1321,417,258765
179,88,89,1276,421,258787
119,94,24,1296,413,258834
131,97,24,1318,384,258861
137,79,-36,1320,369,258802
120,54,56,1329,418,258813
58,60,-6,1281,328,258874
50,90,68,1355,378,258827
18,111,61,1338,416,258817
-13,175,32,1336,407,258825
-36,167,-12,1296,388,258793
-60,157,-5,1311,379,258783
-78,136,45,1268,396,258836
-129,112,70,1332,409,258850
-144,138,61,1280,417,258886
-140,92,97,1320,363,258798
-144,109,38,1368,378,258788
-146,68,53,1232,360,258898
-201,57,35,1250,310,258900
-214,97,-31,1280,317,258896
-229,115,14,1319,378,258814
-203,141,1,1301,371,258814
-199,166,45,1308,373,258869
-165,159,68,1303,371,258775
-176,178,25,1361,352,258801
-211,150,9,1302,371,258760
-247,166,-27,1256,400,258728
-258,146,-31,1307,409,258762
-279,112,6,1277,418,258761
-289,81,27,1318,417,258810
-324,24,127,1352,373,258908
-350,24,140,1390,401,258894
-349,59,135,1305,367,258891
-365,74,78,1292,385,258973
-381,104,130,1252,358,258979
-383,60,69,1201,407,258869
-364,32,161,1220,380,258810
-345,22,58,1362,437,258827
-318,31,144,1266,510,258834
-268,59,9,1303,421,258847
-242,61,5,1350,390,258764
-225,51,-46,1310,442,258804
-206,54,-60,1335,406,258836
-187,26,-51,1378,367,258844
-188,59,-35,1372,345,258922
-137,74,-16,1238,384,258888
-91,74,-33,1371,403,258816
-59,87,-39,1331,362,258837
-39,82,-105,1325,355,258889
-21,64,-103,1308,323,258727
-7,72,-154,1330,332,258789
38,79,-108,1365,380,258838
70,103,-71,1311,424,259026
127,120,-9,1277,421,258913
182,120,-4,1377,411,258839
192,175,20,1362,371,258791
228,169,11,1328,373,258851
231,203,-21,1315,375,258849
253,195,-9,1277,364,258780
282,166,25,1326,378,258764
305,148,52,1344,360,258812
343,118,83,1319,387,258803
327,109,74,1326,421,258747
329,119,42,1238,425,258742
321,91,31,1274,377,258782
294,91,-20,1300,416,258754
269,46,5,1296,417,258837
255,53,20,1280,360,258755
232,58,64,1345,407,258774
221,29,73,1313,338,258824
239,42,-3,1305,288,258779
186,25,-57,1315,385,258860
167,-7,-36,1271,326,258809
154,-18,-30,1212,423,258791
149,-43,46,1363,346,258779
118,-19,101,1272,391,258774
127,-64,125,1308,402,258742
123,-67,123,1345,410,258639
103,-52,102,1292,351,258765
73,-51,137,1288,348,258768
51,-6,104,1323,305,258849
44,-14,109,1316,336,258931
24,-12,130,1304,391,258825
42,-7,124,1366,417,258800
58,-64,124,1340,386,258893
28,-54,57,1308,336,258827
4,-20,35,1304,290,258885
0,-3,-12,1260,329,258869
-30,49,-58,1344,367,258736
-30,39,-4,1283,417,258780
-29,52,-31,1322,373,258757
-12,43,9,1305,423,258836
-12,51,-16,1316,419,258855
-4,126,-80,1310,385,258815
14,147,-97,1329,379,258852
8,179,-149,1370,379,258880
15,196,-192,1313,394,258908
180,-17,-123,1281,395,258790
-42,-27,-29,1336,369,258843
45,158,137,1264,320,258795
-8,-8,-760,1385,454,258896
-57,394,258,1318,385,258764
-56,199,42,1297,503,258948
-227,201,-485,1363,331,258703
-58,126,547,1339,369,258848
-287,194,-462,1277,361,258798
-249,126,704,1227,372,258644
-194,10,-169,1295,341,258947
-267,-5,417,1263,421,258829
-285,137,147,1290,404,258856
-223,-35,-10,1253,423,258774
-300,112,271,1334,326,258751
-361,20,23,1268,400,258907
-349,99,301,1344,361,258747
-338,-3,61,1350,482,258880
-291,-20,115,1256,366,258830
-216,58,-7,1296,365,258818
-275,38,59,1339,410,258785
-270,177,-206,1397,369,258749
-244,221,104,1346,461,258836
-264,97,-243,1308,365,258882
-245,257,88,1252,285,258794
-223,138,-158,1312,455,258854
-187,266,-270,1255,381,258740
-230,306,63,1323,485,258819
-262,316,-225,1335,429,258921
-163,363,73,1327,415,258912
-178,147,-64,1332,402,258982
-190,261,79,1297,328,258787
-125,166,148,1294,409,258804
-96,76,73,1321,325,258746
-72,235,248,1292,387,258761
-11,81,159,1344,407,258832
-16,134,203,1235,306,258727
-23,76,265,1344,324,258812
-46,29,182,1341,375,258865
-65,116,217,1272,368,258824
-78,3,174,1362,368,258908
-113,68,98,1365,326,258886
-94,15,99,1314,398,258693
-124,-16,-47,1323,373,258768
-95,33,-40,1287,417,258799
-74,-25,-136,1368,356,258857
-54,22,-30,1320,342,258809
-20,-22,-49,1351,400,258911
15,-96,-15,1284,409,258888
63,-108,21,1230,351,258821
114,-167,23,1298,340,258855
113,-72,7,1274,325,258825
163,-93,-20,1290,376,258701
201,-65,4,1302,340,258827
226,-40,84,1369,441,258767
250,-94,117,1327,455,258832
282,-53,70,1351,374,258805
317,-11,71,1245,300,258899
305,90,-62,1283,372,258774
335,110,30,1280,373,258814
364,104,-98,1342,388,259002
399,127,49,1366,334,258862
435,56,24,1357,395,258858
411,98,19,1372,375,258824
466,66,95,1291,399,258827
473,85,26,1327,398,258777
479,116,81,1393,371,258778
458,83,70,1347,415,258890
462,118,94,1333,410,258838
425,72,116,1295,384,258800
386,123,43,1271,331,258816
381,107,81,1315,364,258780
343,69,-20,1347,344,258879
309,104,6,1318,311,258891
218,102,-116,1380,369,258830
170,126,-141,1319,421,258804
78,139,-93,1316,399,258791
48,135,-95,1365,338,258912
-13,108,24,1329,311,258805
-35,20,-41,1256,332,258798
-75,8,9,1313,311,258752
-135,41,-43,1282,347,258839
-164,104,-8,1333,354,258946
-208,90,3,1354,388,258847
-250,59,99,1359,379,258870
-240,-2,136,1241,426,258807
-248,-15,141,1266,348,258766
-263,-15,139,1263,333,258847
-276,35,69,1304,343,258792
-295,133,62,1381,438,258758
-309,116,-4,1289,448,258888
-348,144,-2,1313,383,258779
-369,143,3,1276,424,258648
-385,161,12,1332,343,258895
-420,170,57,1311,368,258850
-427,182,0,1240,405,258859
-425,199,-1,1325,377,258945
-431,202,-104,1274,430,258977
-459,201,-80,1327,440,258867
-446,211,-46,1287,372,258883
-453,218,-21,1337,313,258775
-420,174,29,1318,338,258743
-385,156,-21,1288,349,258817
-309,98,54,1328,343,258778
-323,77,-62,1277,380,258853
-268,71,42,1309,341,258853
-228,73,17,1328,430,258806
-203,46,119,1238,412,258867
-167,30,144,1247,418,258855
-127,14,86,1227,414,258862
-90,-12,183,1276,398,258743
-103,-2,-6,1357,422,258765
-79,31,177,1430,396,258816
-93,48,-33,1336,393,258890
-73,28,115,1271,367,258816
-77,17,46,1283,358,258788
-66,-2,2,1238,336,258771
-27,-51,80,1244,384,258782
-33,-60,-48,1338,393,258843
-10,-27,83,1354,386,258897
-12,-7,-91,1254,413,258834
15,14,12,1346,411,258706
11,5,-77,1301,370,258811
-30,11,69,1286,357,258851
75,0,-16,1192,370,258756
47,-27,-132,1296,388,258839
28,21,5,1308,395,258865
118,4,41,1322,352,258831
170,24,-149,1364,331,258797
157,14,-1,1285,425,258865
146,48,-103,1365,370,258850
208,42,52,1184,380,258830
236,8,69,1362,432,258844
219,59,-14,1305,385,258856
272,127,-4,1287,397,258825
289,105,16,1326,464,258735
280,159,-75,1357,360,258883
232,148,-99,1264,440,258808
201,186,110,1281,361,258841
242,155,114,1252,298,258841
235,97,112,1351,387,258822
243,66,130,1349,362,258880
262,47,133,1236,373,258901
279,47,152,1321,334,258921
252,98,127,1334,375,258805
232,47,103,1312,341,258834
238,66,120,1216,311,258889
230,37,72,1309,395,258797
189,47,0,1297,373,258892
150,65,-80,1331,306,258920
116,117,-160,1324,378,258880
95,147,-195,1333,461,258829
85,164,-202,1371,443,258789
60,198,-69,1337,365,258731
69,194,18,1268,394,258775
98,158,17,1288,463,258931
84,146,139,1294,401,258904
79,114,135,1291,397,258747
32,150,191,1385,312,258794
44,113,142,1358,343,258809
-8,128,179,1337,354,258700
-97,119,168,1329,376,258749
-137,99,216,1254,419,258813
-206,68,121,1233,374,258767
-243,91,90,1254,369,258716
-310,121,11,1295,409,258838
-290,147,-103,1345,339,258714
-289,166,-39,1349,384,258725
-327,191,-133,1317,410,258789
-289,163,25,1327,359,258857
-321,127,-89,1268,326,258867
-239,108,-4,1295,376,258806
-212,91,-118,1369,356,258775
-251,86,-48,1341,372,258795
-234,77,-131,1337,366,258810
-238,72,-70,1308,309,258742
-271,95,101,1332,346,258766
-295,35,33,1324,364,258829
-248,93,220,1310,323,258813
-249,17,63,1368,389,258822
-257,74,-4,1333,411,258798
-188,103,-14,1311,429,258808
-217,193,145,1361,378,258796
-224,123,-170,1295,396,258694
-219,113,31,1309,382,258758
-222,152,139,1196,417,258878
-236,108,171,1342,403,258812
-181,44,65,1295,432,258816
-253,103,69,1330,432,258772
-267,101,60,1296,378,258894
-208,102,301,1380,313,258868
-243,62,102,1286,397,258854
-232,44,-18,1314,401,258719
-135,35,117,1253,348,258730
-158,-80,-100,1363,372,258740
-108,-108,139,1316,314,258826
-59,-114,-238,1331,345,258712
3,16,-185,1347,372,258702
20,12,-170,1353,338,258752
62,-4,-69,1312,363,258839
106,-57,-127,1330,417,258938
149,-35,-128,1322,349,258830
180,-34,42,1346,372,258820
195,-3,-2,1335,347,258782
274,5,33,1367,383,258847
254,81,-20,1313,377,258882
237,102,11,1287,392,258890
284,116,123,1220,248,258889
315,0,96,1351,385,258844
342,32,90,1308,352,258835
374,55,150,1316,363,258843
409,61,87,1380,436,258870
432,97,84,1379,362,258818
448,140,59,1318,406,258901
473,216,-66,1276,395,258830
508,160,48,1364,417,258723
528,117,-39,1296,404,258747
524,114,1,1309,392,258735
532,74,-31,1300,370,258818
519,155,-99,1368,374,258781
502,170,-96,1301,371,258792
406,194,-132,1336,399,258846
364,228,-43,1374,327,258831
280,198,-58,1347,351,258925
204,191,68,1304,346,258943
142,139,66,1289,322,258789
92,63,59,1309,365,258742
19,137,59,1297,357,258757
-19,115,103,1320,362,258871
-74,159,42,1352,356,258788
-127,94,60,1345,365,258782
-163,-24,67,1305,393,258832
-250,-26,16,1352,288,258920
-241,-130,-38,1297,322,258914
-299,-91,28,1257,314,258812
-354,-22,14,1288,324,258761
-335,-33,34,1289,429,258925
-326,-59,-230,1365,375,258814
-434,-8,186,1331,319,258800
-434,-44,101,1333,363,258921
-393,-49,113,1315,364,258943
-446,-39,180,1372,401,258818
-419,26,253,1362,418,258864
-405,-9,30,1342,462,258779
-428,50,203,1298,441,258679
-423,33,104,1270,449,258840
-385,18,103,1338,398,258821
-374,-45,191,1377,471,258937
-408,-35,106,1302,325,258761
-350,-87,191,1350,358,258868
-379,4,97,1350,272,258833
-367,24,104,1308,408,258942
-386,78,70,1313,399,258762
-374,88,113,1311,323,258827
-330,78,122,1359,385,258826
-285,46,63,1268,441,258838
-250,52,101,1300,383,258814
-227,56,72,1278,388,258863
-147,41,27,1323,398,258836
-108,99,-12,1318,430,258763
-88,145,-79,1307,429,258790
-36,134,-25,1308,402,258775
8,86,11,1241,346,258876
39,23,-56,1310,348,258818
32,-9,41,1307,385,258854
54,-15,-52,1326,376,258897
60,32,37,1318,315,258828
-1,80,63,1214,423,258871
-22,88,7,1280,482,258845
-16,53,107,1268,415,258851
-26,-4,104,1294,376,258778
-44,-36,143,1256,383,258783
-24,-37,115,1291,431,258846
0,41,34,1351,339,258798
8,95,43,1339,431,258858
21,161,-21,1307,422,258858
72,141,-4,1384,343,258784
130,110,-36,1353,360,258817
146,103,-68,1345,412,258789
172,92,-36,1337,421,258734
211,129,-97,1258,426,258834
245,191,-68,1285,363,258835
260,236,-119,1347,458,258861
256,270,-138,1327,464,258843
281,238,-102,1305,402,258808
250,221,-68,1277,420,258858
272,181,-95,1268,381,258851
281,198,-23,1280,379,258847
293,203,-87,1300,390,258996
277,269,-62,1304,298,258810
246,305,-86,1333,366,258862
217,332,-85,1285,356,258860
188,322,-29,1335,396,258881
194,271,-5,1328,316,258759
172,238,69,1381,322,258897
161,197,24,1355,426,258885
161,186,76,1348,361,258932
149,170,8,1284,422,258773
125,188,18,1345,413,258765
102,155,14,1307,385,258822
80,98,10,1320,314,258779
51,29,52,1227,350,258844
36,-34,106,1214,318,258877
44,-82,54,1260,285,258852
25,-93,67,1337,347,258794
9,-71,19,1330,364,258866
5,-16,-5,1276,369,258816
10,-13,-50,1260,356,258845
-25,-5,-51,1329,333,258749
-45,-38,-26,1303,385,258967
-55,-69,-2,1299,395,258821
-70,-58,27,1309,377,258810
-125,-24,35,1323,333,258919
-156,17,15,1353,382,258838
-181,52,39,1293,416,258820
-235,31,27,1223,406,258861
-278,-3,34,1273,484,258749
-317,-44,57,1325,371,258845
-311,-46,12,1308,380,258824
-327,-18,28,1302,395,258860
-340,15,8,1343,443,258833
-323,59,-7,1301,454,258771
-300,75,19,1345,374,258776
-306,73,-8,1304,351,258843
-314,57,75,1289,410,258779
-293,28,74,1294,386,258932
-260,45,147,1246,373,258987
-244,49,130,1281,329,258939
-234,84,109,1332,327,258944
-214,105,140,1292,323,258916
-201,115,140,1364,340,258823
-193,113,119,1304,299,258775
-159,76,102,1300,355,258818
-122,89,54,1269,419,258751
-100,74,74,1366,395,258876
-77,59,3,1309,371,258870
-66,85,13,1286,381,258806
-54,81,-67,1349,418,258874
-34,95,19,1281,351,258815
-18,87,-21,1294,410,258809
-17,62,49,1286,391,258843
-6,48,28,1300,333,258879
-6,45,70,1342,380,258859
-2,47,61,1332,354,258845
8,77,40,1382,357,258891
25,72,13,1314,342,258848
34,100,-59,1339,380,258847
31,76,-41,1412,414,258922
58,67,-76,1295,422,258844
73,50,-18,1254,372,258760
102,54,-71,1375,439,258759
140,75,-21,1335,424,258758
152,108,-13,1262,293,258779
160,110,-14,1326,337,258791
135,121,69,1289,308,258881
133,112,87,1306,404,258801
130,117,123,1326,389,258812
116,99,124,1265,363,258801
130,130,143,1226,357,258800
149,145,72,1350,321,258849
167,158,78,1363,427,258806
151,160,10,1381,454,258761
178,150,23,1285,426,258857
185,128,-38,1278,387,258858
181,130,-35,1328,429,258869
188,113,-99,1342,407,258919
177,142,-62,1342,360,258851
185,145,-80,1311,473,258757
182,154,-27,1302,472,258794
185,151,-7,1411,446,258902
179,150,62,1245,400,258923
154,122,79,1290,362,258851
127,132,79,1316,370,258842
137,142,122,1350,441,258860
164,199,102,1384,314,258824
148,182,88,1277,381,258797
131,87,23,1283,432,258861
155,70,-50,1210,337,258705
114,111,-149,1327,421,258806
94,99,114,1307,428,258826
17,86,-29,1342,377,258783
10,-55,-118,1308,403,258836
-90,4,358,1264,431,258822
-81,-14,116,1225,369,258814
-18,-46,242,1360,338,258793
-47,-80,24,1329,435,258793
-96,-8,73,1290,410,258829
-98,-104,164,1269,414,258841
-90,-104,197,1298,374,258755
-138,-50,-30,1307,338,258837
-130,-60,-42,1267,374,258934
-160,-32,-45,1335,389,258875
-128,-79,21,1307,403,258801
-96,-86,-106,1239,308,258797
-57,-10,-207,1338,250,258816
-39,-6,-32,1452,389,258720
-119,4,-111,1322,438,258812
-118,-8,72,1312,374,258831
-125,-23,-122,1328,409,258975
-115,23,41,1373,361,258921
-137,13,97,1360,384,258861
-125,9,74,1327,373,258819
-115,36,117,1350,425,258825
-154,41,112,1382,396,258808
-135,107,123,1356,422,258817
-100,59,121,1318,422,258911
-105,60,90,1364,360,258867
-134,129,64,1332,328,258843
-127,133,53,1336,420,258870
-131,199,-15,1332,362,258774
-108,191,38,1321,403,258807
-91,175,-77,1376,344,258850
-76,170,53,1413,442,258867
-79,122,-27,1264,449,258902
-91,157,-16,1355,407,258764
-104,72,6,1346,389,258849
-148,127,61,1297,351,258836
-92,155,-78,1324,359,258816
-82,126,-259,1312,412,258765
-170,214,36,1318,337,258739
-203,137,-38,1283,490,258932
-216,130,-117,1377,392,258878
-197,106,-106,1348,381,258832
-267,128,-123,1369,323,258796
-249,119,120,1337,316,258798
-221,49,24,1345,392,258809
-252,-5,78,1344,431,258814
-236,2,182,1262,376,258894
-252,-26,236,1306,377,258942
-193,4,121,1259,374,258806
-182,39,2,1329,321,258852
-167,123,50,1367,427,258900
-114,150,128,1311,421,258904
-104,93,48,1288,398,258916
-77,100,-21,1303,388,258796
-87,135,-27,1311,365,258809
-37,168,-69,1286,385,258925
5,195,89,1304,394,258842
42,184,10,1362,289,258933
95,208,124,1360,370,258890
145,150,82,1359,409,258804
153,191,34,1359,389,258833
124,182,95,1299,405,258807
140,177,-2,1322,434,258802
158,237,17,1299,429,258810
164,196,-142,1292,368,258908
176,243,-124,1250,272,258830
212,195,-167,1285,338,258828
264,243,-152,1252,303,258834
299,255,-161,1314,370,258799
315,221,-174,1419,371,258823
318,216,-159,1335,318,258881
332,158,-114,1376,369,258888
292,154,-39,1364,410,258818
255,197,63,1283,413,258848
276,115,-141,1245,424,258874
242,145,129,1286,413,258802
178,35,119,1321,397,258833
125,-21,304,1299,341,258858
138,-142,353,1285,391,258817
61,-146,384,1309,408,258824
36,-140,498,1380,420,258890
12,-121,434,1325,413,258911
-41,-92,358,1401,417,258776
-63,-59,375,1373,350,258772
-112,-116,324,1337,367,258858
-159,-117,220,1334,334,258842
-205,-167,80,1273,391,258813
-219,-124,-131,1332,359,258696
-199,-71,-190,1333,446,258726
-232,-86,-288,1391,386,258658
-178,-84,-284,1277,431,258805
-142,-162,-261,1346,405,258714
-126,-152,-300,1300,358,258836
-152,-133,-255,1303,385,258793
-150,-76,-258,1306,376,258703
-131,17,-105,1256,383,258784
-133,50,-143,1317,342,258869
-119,116,8,1277,355,258700
-74,130,-10,1327,364,258821
-45,233,48,1270,377,258809
-172,296,18,1225,416,258863
-226,205,49,1251,342,258857
-76,132,-48,1271,301,258828
-223,144,-53,1351,316,258883
-218,225,3,1282,374,258843
-33,311,26,1324,437,258768
-139,286,-15,1339,451,258873
-138,275,61,1254,375,258848
108,284,366,1411,413,258786
76,166,-31,1287,439,258814
25,192,196,1454,386,258765
76,126,-41,1176,419,258781
29,160,396,1373,382,258791
104,-5,264,1240,376,258851
113,32,252,1321,322,258822
72,24,85,1255,392,258917
113,22,38,1358,307,258922
49,-91,18,1316,360,258880
17,-149,-104,1418,473,258787
-30,-122,-99,1371,366,258876
-27,-76,-246,1315,332,258867
-72,-109,-105,1313,306,258827
-90,-61,-128,1289,345,258829
-12,-111,97,1367,437,258983
2,-100,71,1336,342,258930
42,-111,136,1251,342,258900
61,-113,259,1316,341,258826
-4,-109,226,1338,365,258894
-32,-35,370,1358,389,258842
-34,7,300,1325,403,258819
20,115,361,1295,423,258807
48,47,309,1310,420,258871
140,-7,157,1290,344,258801
154,-64,29,1279,372,258840
190,-19,-73,1323,364,258750
265,69,-183,1355,378,258826
315,137,-257,1371,333,258701
338,233,-364,1299,389,258852
322,303,-418,1378,419,258799
315,326,-296,1414,417,258802
314,358,-222,1446,378,258902
307,292,-100,1354,460,258996
254,315,-16,1307,413,258925
196,243,82,1297,389,258882
184,237,232,1320,331,258842
139,196,221,1271,351,258887
112,205,243,1296,361,258902
93,235,224,1291,400,258942
93,187,159,1371,364,258864
57,186,152,1263,334,258825
23,171,6,1320,371,258980
-11,201,-14,1346,477,258747
-52,219,-81,1327,412,258875
-71,190,-193,1297,391,258783
-128,181,-129,1322,294,258695
-139,143,-120,1339,309,258832
-154,134,-48,1292,332,258868
-129,42,-66,1370,357,258876
-199,10,30,1370,445,258767
-247,-52,6,1259,385,258875
-298,-95,-155,1229,346,258738
-303,-3,-43,1340,377,258750
-381,95,-41,1323,419,258889
-401,45,-256,1262,358,258758
-329,112,125,1229,357,258674
-409,-17,90,1348,418,258913
-427,-26,89,1202,347,258842
-258,-90,-276,1309,409,258933
-318,71,-140,1376,359,258878
-397,138,3,1318,404,258859
-416,138,56,1357,419,258904
-428,127,-21,1355,379,258823
-341,147,47,1341,286,258794
-411,127,-71,1314,357,258825
-414,97,247,1259,382,258641
-365,-16,38,1271,355,258678
-275,8,247,1373,350,258784
-251,-72,250,1295,381,258938
-208,-44,205,1297,380,258856
-99,-39,442,1257,423,258898
-136,11,251,1421,410,258940
-122,101,236,1293,441,258824
-125,81,47,1313,396,258782
-114,123,39,1323,352,258704
-105,73,44,1311,402,258831
-86,41,-15,1352,379,258871
-56,146,-64,1390,357,258785
-51,119,-56,1381,385,258810
-13,151,-28,1249,398,258807
2,157,48,1296,406,258779
41,74,-6,1280,431,258796
89,81,2,1370,370,258833
86,14,-6,1333,384,258817
125,61,-40,1321,349,258851
143,30,12,1258,396,258823
174,30,-8,1332,371,258759
184,16,23,1338,414,258833
213,-53,-51,1365,425,258842
255,-64,-45,1267,358,258800
279,-41,-16,1306,357,258869
269,-102,-48,1344,421,258843
248,-62,49,1310,364,258862
259,-127,-64,1310,323,258904
229,-71,-28,1348,298,258829
228,-39,-21,1398,358,258816
198,22,37,1311,365,258788
172,12,90,1330,351,258768
138,-50,157,1307,367,258877
123,-69,170,1293,295,259002
161,-95,186,1329,355,258843
171,-67,139,1246,364,258735
172,-21,155,1246,322,258739
125,29,109,1349,333,258796
124,80,46,1283,336,258849
172,117,-27,1277,373,258779
160,148,-152,1328,399,258864
145,164,-140,1327,439,258896
150,152,-212,1378,383,258856
149,179,-247,1340,401,258828
133,170,-301,1233,403,258795
140,201,-250,1330,365,258811
155,227,-157,1318,379,258848
140,241,-47,1296,287,258777
143,271,-3,1229,349,258841
168,298,71,1395,436,258868
168,322,35,1390,411,258827
156,320,73,1335,392,258750
111,322,60,1393,383,258768
95,296,123,1268,344,258776
25,272,150,1363,347,258755
-37,248,162,1244,320,258709
-71,238,151,1250,376,258802
-139,225,113,1266,329,258785
-191,216,143,1349,378,258793
-249,163,73,1287,370,258737
-281,121,110,1353,344,258824
-314,100,46,1340,416,258761
-342,74,10,1275,341,258787
-352,77,34,1260,284,258743
-354,117,59,1297,358,258817
-367,103,88,1305,407,258837
-321,50,143,1370,339,258885
-305,-14,61,1363,346,258843
-293,-78,54,1376,385,258833
-317,-64,27,1271,395,258893
-339,-69,52,1342,331,258864
-375,-52,84,1236,384,258837
-348,-62,81,1219,368,258784
-328,-79,148,1320,422,258823
-314,-51,118,1295,434,258792
-280,-54,119,1275,437,258872
-278,-27,112,1324,411,258882
-269,-23,63,1421,363,258735
-282,-2,72,1297,358,258748
-268,-29,-17,1245,364,258761
-266,-2,-69,1259,317,258816
-241,23,-36,1298,423,258804
-192,60,-103,1216,377,258920
-156,96,-33,1345,378,258884
-97,148,-40,1379,370,258905
-17,144,-96,1322,431,258856
-21,192,-56,1337,445,258850
28,160,-79,1355,495,258864
60,153,-4,1329,406,258828
89,138,7,1308,443,258789
120,108,-5,1311,429,258863
180,90,-34,1300,319,258798
236,96,-2,1384,363,258803
251,87,5,1378,397,258759
246,106,48,1358,388,258847
213,111,78,1307,311,258865
182,74,21,1336,346,258967
159,101,-1,1380,317,258949
156,89,24,1302,364,258843
119,66,125,1317,367,258853
123,12,164,1325,399,258772
181,-41,219,1345,384,258765
162,-82,84,1390,460,258810
133,-51,32,1290,452,258824
111,-37,7,1315,409,258825
77,-43,64,1371,413,258732
48,-67,21,1307,425,258904
58,-69,-47,1271,303,258826
88,-69,-56,1325,345,258803
135,-53,-41,1442,303,258719
192,-18,16,1363,350,258862
229,5,132,1265,355,258670
276,17,41,1347,335,258702
291,31,0,1335,390,258750
279,46,-60,1342,407,258776
234,63,-81,1354,397,258908
231,75,-3,1349,333,258921
220,89,-65,1332,380,258851
212,87,22,1349,355,258802
231,67,-32,1321,353,258841
229,118,-45,1344,428,258804
224,169,23,1289,459,258769
196,232,-14,1309,385,258753
166,242,-47,1297,323,258916
142,218,34,1307,470,258847
98,230,-62,1260,423,258831
53,235,-9,1268,459,258804
33,210,132,1269,359,258781
9,185,75,1323,297,258692
-27,155,119,1337,335,258758
0,107,108,1287,348,258763
-35,117,124,1414,333,258705
-67,83,172,1298,409,258723
-103,65,96,1311,397,258748
-113,120,144,1400,396,258726
-94,60,67,1308,414,258851
-70,31,40,1366,396,258731
-75,71,46,1305,443,258858
-63,50,1,1300,401,258832
-89,83,-8,1350,399,258733
-110,107,-13,1304,406,258835
-163,80,-61,1331,414,258829
-252,126,-20,1292,403,258784
-299,102,39,1245,421,258787
-337,82,68,1212,388,258827
-363,105,169,1268,371,258929
-361,58,162,1343,441,258853
-383,56,164,1346,403,258930
-421,47,130,1289,324,258785
-437,-16,-98,1308,301,258873
-412,8,69,1288,346,258822
-483,-11,-121,1262,368,258851
-441,1,-31,1261,314,258727
-394,8,-12,1329,326,258843
-355,43,-117,1327,303,258921
-264,107,22,1266,346,258830
-200,175,-32,1355,403,258902
-144,189,54,1289,328,258824
-100,186,42,1389,337,258866
-80,141,52,1324,435,258787
-105,118,-42,1256,372,258812
-136,89,41,1323,359,258763
-123,70,26,1254,368,258832
-85,28,103,1322,353,258761
-79,17,60,1289,399,258682
1,11,113,1299,417,258825
29,73,5,1287,323,258712
52,117,74,1383,398,258708
73,135,-18,1313,302,258855
33,151,-11,1324,292,258811
42,79,-113,1285,340,258801
43,74,-35,1348,288,258752
41,77,-61,1337,326,258775
38,94,55,1380,451,258745
92,86,-51,1216,414,258731
133,105,-58,1322,329,258833
123,71,-63,1391,319,258815
129,70,-51,1395,393,258777
149,37,-104,1363,360,258837
209,54,-39,1292,341,258786
227,59,-54,1315,344,258862
254,63,-17,1276,348,258752
322,46,32,1408,401,258851
348,48,-93,1460,393,258877
315,79,-16,1361,383,258731
271,84,41,1287,377,258753
235,54,79,1297,377,258817
216,53,94,1292,401,258787
234,35,139,1313,451,258949
180,55,96,1324,364,258830
168,23,145,1312,370,258863
236,-6,145,1338,333,258877
190,9,159,1449,390,258784
169,17,-11,1296,327,258867
234,-3,-15,1312,429,258799
222,-22,-46,1332,398,258787
159,-3,-54,1328,352,258787
172,-41,53,1355,370,258759
229,-42,28,1319,410,258786
172,18,54,1325,391,258961
124,99,64,1237,411,258920
113,160,111,1323,401,258816
180,180,-62,1367,389,258916
67,194,199,1367,369,258802
-3,131,-74,1274,371,258845
151,90,128,1241,416,258792
57,112,-29,1443,436,258900
-11,104,-20,1296,422,258857
-17,77,-76,1312,365,258845
-22,91,120,1289,384,258854
-70,52,-65,1365,350,259052
-150,90,74,1281,341,258833
-209,107,-96,1281,360,258824
-308,123,-7,1296,398,258771
-448,108,-79,1316,386,258848
-419,134,-210,1307,368,258842
-529,73,200,1379,436,258798
-678,97,-346,1276,413,258840
-550,88,303,1363,391,258721
-628,88,-353,1313,354,258857
-638,131,320,1343,332,258853
-640,155,-348,1206,365,258889
-447,92,128,1351,409,258773
-568,119,-80,1317,307,258788
-574,99,-88,1245,323,258851
-449,114,96,1335,407,258761
-459,70,-127,1340,390,258852
-363,92,48,1333,397,258821
-384,95,-27,1310,389,258822
-237,17,210,1324,374,258758
-16,-127,-88,1302,376,258893
-13,-74,285,1410,333,258929
0,-110,20,1207,385,258995
42,-39,182,1303,350,258833
44,-75,175,1295,400,258822
56,-12,166,1349,384,258804
69,17,163,1340,352,258864
133,45,240,1393,396,258865
100,109,-7,1420,390,258797
102,263,217,1367,426,258745
32,208,106,1304,393,258932
92,258,90,1315,363,258886
114,164,73,1293,373,258826
136,168,-99,1343,377,258827
128,196,38,1404,425,258835
135,174,-187,1301,444,258915
249,126,109,1260,392,258840
238,131,-139,1284,370,258802
267,104,60,1315,320,258786
270,121,-122,1276,312,258855
336,63,134,1344,350,258877
228,182,-33,1294,374,258796
238,137,208,1224,406,258791
277,160,19,1291,279,258792
319,129,115,1302,391,258904
192,46,50,1353,366,258865
216,80,-14,1275,385,258870
225,22,204,1338,401,258904
92,55,-220,1295,343,258767
127,42,254,1348,370,258784
78,13,-149,1267,362,259002
67,-1,309,1332,365,258847
38,-11,-121,1330,398,258858
105,-80,265,1283,399,258812
56,-29,4,1300,328,258856
107,-77,232,1306,333,258858
179,-39,108,1332,314,258857
157,-58,98,1333,365,258866
182,-32,177,1287,482,258892
243,-55,63,1314,356,258856
199,-28,126,1280,412,258856
193,-27,-5,1258,392,258832
142,-33,28,1314,435,258789
97,16,-108,1253,393,258921
83,0,57,1273,410,258849
30,30,-153,1287,427,258788
16,90,19,1339,418,258657
11,36,-138,1317,370,258842
-42,88,-16,1331,392,258728
-86,70,24,1270,413,258761
-48,56,14,1340,402,258760
-122,99,10,1379,417,258693
-161,90,-11,1399,417,258864
-182,127,-15,1348,441,258806
-204,126,-23,1322,382,258728
-183,123,-12,1322,362,258842
-190,112,-64,1331,402,258741
-204,75,-18,1290,430,258890
-215,74,-14,1291,405,258863
-226,49,6,1282,328,258807
-238,83,-23,1264,304,258827
-205,83,17,1315,345,258819
-291,42,-10,1352,407,258842
-308,51,-24,1305,370,258787
-255,70,-2,1255,335,258774
-292,59,-19,1324,396,258767
-264,99,13,1297,347,258763
-259,97,-14,1264,316,258816
-251,108,30,1247,316,258794
-224,159,-40,1305,328,258807
-235,164,-27,1314,432,258964
-232,150,-96,1232,382,258784
-211,162,-79,1269,374,258766
-235,157,-60,1314,402,258865
-244,185,-89,1287,403,258936
-169,217,-79,1333,371,258874
-120,179,-27,1338,346,258833
-97,174,15,1288,394,258865
9,155,73,1263,444,258804
104,133,83,1272,409,258859
97,181,-11,1303,382,258846
136,169,61,1350,422,258933
136,148,-25,1370,318,258921
124,133,-19,1312,383,258903
155,80,-21,1379,380,258815
145,116,8,1389,372,258804
153,148,29,1379,379,258847
158,169,41,1333,397,258852
136,167,108,1310,402,258899
153,114,144,1312,388,258823
154,61,200,1302,359,258862
120,45,238,1333,371,258925
58,26,220,1302,338,258786
24,40,214,1340,351,258760
11,64,117,1356,439,258861
15,37,145,1397,480,258805
28,15,113,1302,395,258737
68,-34,142,1311,485,258810
99,-87,17,1376,471,258836
83,-83,16,1324,287,258834
104,-81,-59,1348,351,258810
84,-52,43,1340,315,258865
56,-45,-24,1384,346,258904
29,17,29,1324,307,258761
35,30,-36,1311,355,258830
29,75,32,1289,396,258722
19,35,13,1272,374,258758
35,60,51,1280,375,258813
41,-3,-17,1288,378,258747
29,-41,-36,1266,340,258805
17,-91,-66,1266,348,258886
21,-79,-52,1323,339,258874
17,-80,-33,1356,376,258828
-39,-8,-58,1367,428,258795
-13,8,-67,1312,412,258837
28,80,-47,1291,335,258839
15,81,-1,1316,379,258820
-10,101,67,1189,399,258758
-15,74,86,1277,382,258792
-23,67,142,1297,433,258788
-65,76,111,1303,445,258796
-89,101,134,1289,425,258948
-70,100,79,1277,371,258821
-92,132,94,1293,349,258785
-115,128,34,1295,385,258878
-79,148,21,1291,331,258824
-27,183,-91,1252,358,258839
-18,201,-70,1318,362,258897
5,172,-97,1314,365,258884
39,121,8,1308,443,258895
27,95,4,1310,406,258834
-27,126,5,1283,403,258857
-71,160,48,1326,427,258937
-123,222,64,1320,413,258860
-176,238,39,1304,416,258766
-218,226,81,1242,381,258748
-238,182,38,1351,379,258798
-227,76,32,1320,398,258769
-289,11,19,1291,333,258751
-269,-27,-33,1357,363,258765
-259,-4,-1,1321,363,258752
-252,28,-28,1242,340,258763
-267,72,40,1323,386,258811
-241,72,32,1303,441,258800
-224,115,39,1283,360,258826
-218,129,-6,1315,390,258738
-219,152,-22,1245,335,258891
-184,150,-53,1312,342,258914
-171,123,46,1326,371,258990
-119,86,-6,1338,368,258825
-90,38,30,1294,401,258785
-57,48,24,1296,368,258746
-26,87,58,1324,390,258777
16,105,41,1291,350,258919
76,109,21,1318,399,258769
131,131,-24,1352,386,258726
151,118,-50,1401,381,258718
197,126,19,1304,308,258829
200,80,-35,1325,393,258805
195,97,57,1311,409,258822
202,75,61,1248,458,258773
194,73,134,1271,405,258680
187,40,148,1287,357,258815
158,75,188,1343,375,258829
198,67,132,1335,372,258816
174,104,151,1298,325,258934
180,87,147,1299,290,258849
196,65,147,1336,369,258882
203,33,103,1313,390,258844
193,0,-8,1337,361,258767
161,-24,-61,1283,371,258758
116,8,-129,1334,337,258785
83,60,-105,1348,358,258817
28,101,-127,1309,317,258749
9,109,-108,1274,317,258764
29,78,-92,1269,365,258876
9,54,-27,1306,347,258765
9,3,-12,1332,354,258818
31,-17,17,1332,381,258932
13,-74,-79,1394,378,258803
18,-95,37,1436,410,258771
-34,-118,45,1325,392,258860
-33,-122,79,1185,384,258874
7,-94,134,1263,415,258845
-27,-32,49,1241,331,258935
-41,5,188,1309,330,258775
-27,10,132,1326,408,258852
13,21,185,1345,362,258843
21,16,127,1256,364,258827
14,10,107,1265,384,258829
17,-35,71,1299,399,258715
-29,-29,81,1284,333,258798
-5,-7,21,1302,356,258891
-11,59,24,1307,334,258810
-8,104,0,1321,351,258753
15,162,-15,1314,405,258785
21,216,24,1338,403,258878
20,245,-35,1327,289,258734
34,230,-31,1346,345,258853
25,211,-82,1324,406,258919
10,201,-47,1268,386,258893
-29,163,-64,1305,353,258844
-57,150,-63,1315,372,258877
-69,134,-58,1276,391,258821
-96,128,25,1277,376,258895
-106,131,62,1310,336,258918
-121,122,118,1384,340,258895
-141,127,130,1307,379,258776
-154,138,130,1298,353,258800
-168,121,134,1289,333,258814
-185,130,110,1265,441,258854
-199,93,41,1248,430,258802
-226,72,0,1323,364,258796
-253,34,-8,1350,367,258804
-261,22,-19,1336,341,258822
-265,28,-15,1342,467,258846
-236,54,-56,1312,437,258816
-234,89,-39,1327,375,258885
-233,107,-34,1299,445,258772
-212,76,-25,1377,415,258819
-158,72,-62,1297,414,258810
-131,47,-53,1302,367,258861
-114,30,-77,1228,425,258712
-92,40,-82,1265,377,258766
-123,70,-82,1224,363,258781
-144,120,-57,1299,459,258795
-184,168,-45,1341,360,258654
-194,194,7,1288,313,258807
-186,197,46,1382,315,258673
-177,228,76,1311,410,258796
-132,217,92,1356,349,258737
-76,202,115,1370,363,258777
-35,186,147,1287,330,258854
5,156,158,1294,388,258809
34,130,141,1247,386,258802
47,117,132,1265,386,258819
38,133,67,1317,374,258788
-1,137,25,1280,285,258792
-43,147,-3,1310,358,258717
-58,164,-56,1311,412,258708
-20,144,-70,1318,397,258790
-35,150,-60,1303,361,258815
41,138,-18,1320,365,258728
106,115,-7,1334,350,258836
178,93,3,1397,399,258854
208,74,-6,1342,398,258848
239,56,9,1346,375,258821
267,49,20,1353,402,258860
247,54,2,1342,370,258833
227,58,-10,1345,421,258728
198,39,-5,1354,459,258913
181,16,58,1349,374,258836
199,2,28,1300,393,258810
215,-39,-39,1382,423,258872
221,17,159,1316,384,258736
235,-8,114,1357,402,258867
260,-9,176,1288,439,258765
271,-51,110,1320,475,258678
264,-52,57,1291,408,258861
260,-91,122,1331,428,258849
216,-128,35,1365,387,258850
212,-126,-38,1321,282,258757
210,-93,-78,1399,294,258712
175,-67,-67,1340,339,258776
151,-37,10,1310,379,258761
122,-37,8,1311,398,258732
105,-7,5,1361,418,258800
63,-21,20,1341,395,258790
49,-24,-4,1307,360,258921
26,-65,-17,1264,319,258802
-27,-82,-9,1268,366,258803
-71,-70,-98,1349,402,258883
-88,-54,-52,1362,407,258867
-108,-20,-85,1287,420,258779
-138,55,20,1334,406,258831
-148,110,110,1320,416,258936
-148,210,143,1309,379,258846
-148,248,183,1287,358,258897
-149,267,177,1268,359,258931
-136,246,195,1316,412,258939
-142,167,186,1333,415,258914
-164,132,117,1277,379,258919
-192,94,79,1297,426,258898
-206,66,27,1248,312,258846
-245,105,41,1291,280,258898
-273,118,44,1342,341,258827
-274,150,29,1293,353,258887
-262,153,12,1277,370,258780
-256,189,9,1300,370,258749
-238,207,-21,1268,394,258794
-196,163,6,1308,395,258790
-145,108,-40,1350,318,258727
-146,43,-67,1328,340,258700
-149,0,-113,1325,361,258780
-110,-16,-196,1429,406,258788
-134,4,-131,1307,353,258857
-179,17,-151,1276,350,258820
-196,54,-43,1227,339,258757
-204,46,-65,1282,351,258816
-209,61,0,1316,373,258789
-233,34,-25,1298,362,258773
-218,34,56,1354,409,258746
-200,21,-5,1300,389,258894
-162,-22,67,1297,319,258869
-152,-43,54,1340,295,258810
-122,-54,116,1253,415,258906
-83,-54,153,1316,437,258853
-69,5,130,1308,392,258862
-68,81,196,1344,377,258829
-50,159,179,1321,390,258728
-23,220,181,1308,378,258861
-15,195,165,1348,371,258833
-3,164,129,1322,365,258935
45,138,88,1380,339,258866
82,121,53,1347,333,258825
123,153,-19,1226,477,258859
149,192,6,1270,412,258853
187,232,-1,1323,334,258892
174,286,15,1352,316,258809
181,319,10,1292,355,258891
163,380,-6,1316,390,258855
169,412,32,1284,356,258872
153,429,28,1355,336,258807
156,397,69,1271,418,258838
159,323,72,1265,369,258873
167,240,77,1295,341,258839
148,147,66,1395,400,258828
98,87,45,1348,366,258778
69,32,1,1291,408,258866
39,-3,-29,1291,353,258869
11,-23,-47,1359,376,258784
-6,-41,-30,1356,429,258818
17,-47,-13,1322,386,258809
46,-56,-33,1307,464,258802
62,-78,-62,1278,411,258708
93,-97,-111,1367,384,258737
125,-121,-128,1306,394,258897
113,-135,-139,1259,417,258832
96,-145,-126,1248,380,258805
46,-135,-123,1321,394,258840
-4,-100,-106,1386,431,258859
-35,-75,-114,1319,387,258799
-44,-66,-82,1318,337,258840
-43,-70,-33,1249,409,258891
-5,-86,41,1291,301,258902
21,-94,78,1364,381,258827
47,-75,88,1351,414,258843
71,-60,105,1250,407,258772
75,-49,96,1239,380,258808
70,-21,126,1310,361,258845
40,28,103,1314,312,258894
9,103,78,1356,380,258813
-8,182,50,1341,356,258794
-8,274,52,1387,374,258744
-9,363,54,1243,343,258835
1,412,57,1235,371,258884
23,410,65,1265,384,258893
41,396,86,1293,364,258822
43,343,96,1297,425,258761
54,293,115,1333,371,258865
38,228,104,1312,306,258823
-13,166,85,1310,368,258829
-88,119,49,1303,396,258685
-172,68,19,1292,379,258831
-231,23,22,1307,411,258855
-278,-3,19,1300,382,258777
-292,-14,65,1289,365,258829
-288,-69,73,1339,365,258878
-272,-117,68,1282,350,258940
-221,-172,70,1261,380,258846
-239,-181,60,1356,381,258920
-166,-206,20,1367,411,258859
-130,-205,-15,1322,440,258907
-109,-170,-119,1308,463,258893
-90,-123,-163,1306,425,258792
-73,-71,-168,1364,374,258727
-68,-35,-135,1299,358,258829
-50,-25,-73,1316,370,258816
-16,-31,-49,1298,416,258889
-15,-13,3,1370,404,258878
-41,-8,32,1300,349,258889
-41,3,119,1333,418,258826
-57,19,156,1285,346,258746
-39,31,208,1320,333,258699
-11,63,157,1236,377,258741
9,123,130,1238,347,258809
26,224,122,1337,377,258760
40,310,100,1336,395,258766
43,387,93,1289,462,258900
67,426,60,1291,398,258924
78,407,7,1348,403,258870
76,358,-2,1275,427,258771
63,291,2,1287,406,258884
89,232,-16,1301,413,258863
99,185,-14,1310,380,258815
131,149,-69,1336,446,258802
139,145,-92,1319,492,258784
123,141,-97,1284,413,258803
96,151,-42,1304,415,258895
57,174,6,1325,363,258964
22,180,13,1232,329,258948
-24,163,37,1294,364,258817
-71,128,58,1283,333,259019
-111,69,87,1275,409,258911
-134,19,117,1304,423,258811
-148,1,125,1250,365,258863
-134,-19,148,1345,344,258741
-110,-6,141,1318,330,258773
-106,0,102,1317,379,258938
-105,35,48,1253,417,258964
-99,51,-49,1249,368,258782
-100,72,-61,1321,370,258761
-94,102,-82,1273,341,258774
-93,124,-78,1278,415,258753
-96,143,-83,1298,423,258864
-88,127,-54,1303,351,259002
-67,95,-58,1380,371,258948
-22,34,-42,1397,362,258797
9,7,-4,1351,337,258736
74,-15,14,1326,295,258744
105,6,40,1377,339,258844
105,24,76,1236,347,258856
112,36,110,1203,351,258777
85,26,116,1316,331,258810
37,38,118,1386,334,258886
-24,37,117,1308,334,258776
-63,49,136,1302,416,258906
-76,41,143,1284,401,258893
-71,10,185,1332,397,258789
-34,-27,160,1318,362,258809
-9,-59,159,1305,386,258830
25,-71,150,1325,340,258750
56,-57,105,1275,360,258861
80,-31,94,1276,389,258827
77,-7,31,1388,432,258873
62,0,-32,1358,380,258812
34,31,-69,1382,427,258752
-19,55,-125,1324,412,258807
-38,69,-93,1408,357,258800
-61,86,-82,1320,382,258793
-51,96,-97,1287,386,258879
-32,104,-90,1264,258,258834
10,96,-107,1302,371,258810
57,104,-93,1347,408,258875
107,81,-66,1358,337,258833
146,90,-41,1391,357,258736
163,112,-35,1305,370,258838
114,136,-34,1308,396,258766
99,147,-63,1314,464,258731
49,130,-36,1281,415,258727
2,116,-22,1296,391,258904
-14,109,12,1322,319,258843
-10,93,47,1321,411,258889
8,97,61,1362,431,258720
36,94,69,1319,426,258755
68,81,101,1300,426,258879
74,74,121,1318,415,258738
88,70,125,1366,312,258759
75,75,135,1334,388,258830
50,72,101,1310,445,258778
-4,73,112,1353,402,258765
-50,56,68,1329,319,258760
-87,32,52,1314,352,258837
-116,36,12,1311,407,258829
-113,31,-31,1357,391,258743
-92,63,-27,1367,404,258777
-65,68,-49,1372,323,258786
-37,74,-36,1293,375,258803
-23,84,-34,1344,381,258857
-9,72,-40,1358,396,258820
-32,59,-28,1283,428,258923
-87,71,-15,1280,375,258838
-137,67,5,1321,302,258803
-185,49,7,1369,289,258755
-220,27,4,1370,416,258815
-236,9,25,1287,374,258855
-218,8,42,1316,356,258857
-195,20,62,1318,403,258729
-162,39,103,1366,343,258808
-139,57,121,1340,388,258847
-117,64,151,1366,445,258835
-114,59,139,1347,382,258807
-128,61,160,1332,334,258829
-172,51,154,1309,395,258975
-218,49,122,1282,331,258968
-248,56,60,1396,364,258868
-265,66,7,1326,328,258879
-261,97,3,1306,418,258766
-228,143,-5,1268,447,258864
-197,212,15,1393,417,258901
-139,228,-11,1310,367,258775
-75,225,-5,1331,329,258771
-47,201,-39,1275,326,258829
-9,162,-15,1268,378,258871
1,156,-37,1237,435,258793
4,168,-14,1202,361,258810
10,166,-40,1304,346,258873
-27,193,-56,1315,332,258868
1,197,-114,1304,366,258910
7,213,-154,1375,293,258814
10,222,-158,1316,373,258865
31,233,-154,1309,377,258779
47,254,-94,1329,360,258764
56,256,-82,1283,378,258899
55,259,-15,1247,391,258749
35,228,-10,1258,367,258811
-4,183,53,1356,346,258902
-37,120,74,1266,369,258943
-59,59,99,1203,412,258985
-73,31,84,1273,445,258921
-71,4,96,1276,328,258788
-55,-9,73,1344,376,258771
-33,-24,92,1340,389,258836
-23,-32,72,1334,406,258819
9,-18,50,1370,368,258889
36,-8,70,1391,350,258730
47,-6,73,1339,302,258912
43,-21,80,1326,374,258813
34,-54,57,1260,395,258819
27,-84,61,1276,417,258841
13,-97,63,1360,373,258927
1,-120,72,1289,379,258824
42,-124,37,1315,367,258795
49,-117,29,1311,427,258762
80,-110,10,1310,388,258865
113,-114,-15,1258,417,258830
155,-77,-15,1255,360,258837
187,-48,-7,1335,350,258805
224,-3,19,1402,389,258738
255,7,40,1336,392,258723
247,6,81,1332,364,258823
236,13,109,1388,374,258843
201,21,139,1314,343,258906
190,39,156,1350,316,258873
185,66,184,1337,388,258821
191,79,176,1340,419,258908
195,114,176,1314,364,258843
202,140,184,1252,396,258909
207,160,139,1319,384,258901
209,176,89,1327,374,258869
195,181,35,1326,346,258899
174,181,18,1338,334,258865
147,165,6,1425,470,258864
93,172,-7,1327,437,258751
50,173,12,1254,429,258805
3,169,34,1326,370,258815
-30,148,31,1413,379,258946
-37,111,76,1311,407,258852
-34,61,28,1301,404,258901
-1,30,37,1309,438,258896
17,-14,-30,1332,396,258810
35,-43,-106,1332,396,258891
53,-44,-156,1352,360,258797
47,-25,-205,1326,311,258871
41,1,-193,1340,365,258864
9,50,-196,1318,365,258779
-28,106,-132,1305,407,258681
-66,162,-123,1263,404,258825
-95,180,-60,1321,404,258883
-104,169,-12,1369,332,258888
-113,134,25,1341,359,258817
-103,89,65,1311,334,258927
-79,58,95,1265,340,258846
-68,37,95,1274,382,258792
-76,14,105,1278,377,258841
-88,17,60,1245,373,258914
-96,26,43,1220,331,258825
-133,41,19,1261,275,258873
-147,82,23,1324,349,258819
-186,130,91,1308,375,258828
-212,201,83,1278,445,258824
-228,249,137,1330,455,258758
-278,277,92,1291,391,258810
-292,292,61,1392,343,258940
-338,292,40,1321,395,258883
-323,280,40,1292,402,258776
-339,243,-7,1252,431,258776
-301,201,0,1275,407,258814
-290,163,-1,1355,297,258823
-292,115,-22,1285,323,258862
-289,59,-25,1319,344,258745
-291,24,21,1302,344,258862
-329,3,30,1290,295,259020
-347,-20,54,1212,401,258896
-352,-14,101,1252,383,258804
-379,-9,110,1344,454,258840
-380,-13,104,1297,465,258819
-307,-7,112,1371,403,258835
-261,-2,104,1323,417,258766
-224,3,56,1274,348,258968
-135,10,65,1252,348,258885
-90,22,25,1304,435,258865
-64,5,-76,1373,383,258890
-20,19,-87,1294,368,258918
-22,39,-133,1373,362,258823
-26,50,-145,1294,397,258828
-6,67,-93,1280,419,258875
-30,76,-88,1354,409,258892
-19,70,-33,1292,430,258783
52,62,31,1271,320,258821
50,77,70,1295,429,258807
129,82,118,1325,386,258869
178,114,136,1378,442,258845
199,139,120,1331,389,258868
266,134,126,1221,358,258846
273,165,127,1246,350,258906
267,150,59,1321,305,258822
306,169,84,1395,357,258805
282,174,37,1330,414,258871
263,154,44,1314,469,258848
266,138,64,1319,410,258830
243,85,4,1284,396,258823
250,20,34,1321,370,258865
270,-33,6,1272,393,258806
260,-53,-2,1265,331,258884
282,-63,35,1220,301,258745
281,-41,45,1315,315,258776
291,-34,7,1382,348,258877
279,-6,39,1308,420,258817
210,4,-25,1300,349,258861
204,24,-29,1284,336,258901
142,32,3,1302,312,258748
91,21,-45,1289,414,258793
96,44,-16,1288,414,258880
65,46,-15,1314,370,258911
69,49,-29,1338,399,258851
93,45,-60,1393,351,258818
84,49,-64,1313,333,258852
109,55,-78,1300,356,258723
98,60,-30,1368,450,258923
109,39,-80,1351,450,258885
111,60,-60,1326,456,258803
76,63,-23,1307,408,258856
21,94,7,1277,352,258779
41,87,-28,1288,385,258808
-17,108,73,1290,447,258811
-50,122,74,1357,332,258801
-58,127,103,1327,361,258806
-71,110,162,1288,365,258839
-72,102,132,1278,380,258863
-30,76,155,1298,423,258825
-43,62,137,1295,363,258817
-60,68,100,1352,363,258848
-11,70,66,1327,385,258777
-41,95,57,1323,438,258834
-72,114,82,1355,460,258898
-98,121,83,1395,395,258785
-112,118,27,1376,416,258807
-149,128,72,1329,368,258874
-203,149,77,1317,327,258817
-228,125,63,1332,337,258822
-237,132,85,1279,351,258820
-253,134,58,1228,346,258901
-263,135,87,1274,364,258820
-267,89,32,1322,436,258735
-292,75,35,1357,426,258863
-294,71,-4,1356,396,258841
-309,87,-23,1358,436,258752
-345,101,0,1316,394,258785
-366,110,2,1282,354,258807
-389,88,22,1312,382,258734
-416,65,48,1343,402,258794
-435,52,47,1311,428,258879
-399,57,58,1309,379,258790
-376,34,38,1265,398,258890
-357,30,65,1219,399,258852
-308,9,32,1279,384,258836
-270,10,8,1337,360,258832
-224,2,-7,1306,347,258811
-197,42,-67,1308,347,258787
-120,36,-88,1304,370,258912
-79,53,-108,1325,327,258943
-22,75,-127,1287,342,258868
25,112,-102,1342,354,258781
38,97,-127,1357,389,258862
65,99,-49,1318,366,258822
73,110,-76,1322,401,258859
104,88,-41,1383,353,258878
127,83,-7,1313,401,258909
138,74,20,1347,444,258840
177,61,90,1307,405,258903
188,17,85,1301,395,258925
213,15,127,1279,412,258949
226,-17,123,1369,413,258912
226,8,121,1358,386,258870
233,8,162,1292,379,258770
219,7,124,1301,414,258817
215,16,108,1314,431,258894
210,-19,132,1368,323,258842
167,25,177,1329,334,258859
194,37,66,1324,380,258762
198,30,-3,1374,415,258761
185,80,105,1372,364,258822
162,61,55,1327,360,258857
175,18,13,1265,334,258876
209,10,-101,1291,352,258833
185,35,-151,1308,337,258758
198,34,-43,1312,402,258684
203,46,-96,1297,380,258789
228,94,-98,1303,417,258794
205,132,-82,1356,409,258763
187,165,-89,1327,411,258735
146,177,15,1384,301,258832
133,150,-53,1356,343,258884
153,155,-31,1400,321,258884
149,168,1,1362,414,258809
137,165,25,1305,360,258766
119,160,86,1417,361,258893
89,149,45,1348,400,258857
90,133,55,1270,443,258900
49,131,23,1260,426,258886
16,107,54,1273,367,258844
-29,106,121,1249,409,258836
-61,85,112,1311,338,258782
-84,92,143,1292,344,258828
-129,42,100,1366,402,258811
-142,16,153,1377,409,258814
-196,0,168,1327,338,258797
-208,-6,153,1306,320,258684
-200,13,140,1342,372,258733
-199,10,56,1283,355,258782
-166,30,37,1311,401,258789
-151,38,-51,1333,324,258882
-128,45,-84,1290,417,258854
-133,63,-93,1328,333,258857
-148,57,-140,1356,305,258820
-136,97,-78,1264,376,258870
-145,135,-118,1334,363,258776
-130,169,-39,1312,437,258718
-131,166,-12,1345,498,258815
-118,161,43,1341,400,258748
-106,137,83,1296,377,258712
-87,130,64,1293,366,258764
-62,106,66,1304,331,258872
-58,80,45,1377,409,258878
-36,52,14,1339,365,258779
-39,32,24,1290,306,258851
-43,50,30,1299,417,258809
-11,45,27,1332,379,258877
5,77,39,1365,387,258807
9,103,85,1391,378,258689
16,141,78,1244,364,258822
44,144,123,1294,374,258781
24,164,182,1292,389,258856
32,169,149,1268,388,258789
43,184,176,1304,360,258814
30,179,87,1320,368,258921
48,170,88,1361,363,258821
34,146,7,1263,383,258813
36,123,-33,1277,324,258863
42,99,-47,1231,367,258856
38,90,-98,1328,498,258739
64,100,-61,1314,426,258785
62,104,-94,1325,388,258755
98,93,-26,1372,375,258788
25,92,5,1347,328,258763
27,72,46,1325,359,258866
25,35,108,1337,387,258876
-17,10,79,1317,349,258809
-24,-5,133,1326,379,258917
-97,-12,84,1332,367,258802
-121,-31,53,1321,382,258732
-141,-51,21,1253,423,258830
-169,-53,-55,1306,418,258861
-159,-43,-40,1354,315,258845
-173,-26,-60,1309,334,258867
-152,-23,-95,1318,368,258907
-160,14,-102,1268,424,258837
-141,36,-155,1283,411,258797
-110,59,-140,1314,431,258768
-105,60,-174,1353,375,258922
-86,81,-101,1301,357,258850
-96,99,-84,1314,425,258887
-94,88,-70,1239,323,258854
-102,103,-6,1262,363,258811
-105,86,-60,1256,364,258764
-114,89,-3,1294,327,258783
-139,81,-49,1289,401,258875
-143,117,-10,1288,390,258840
-162,124,-10,1322,362,258843
-156,117,-11,1325,360,258877
-134,122,30,1373,415,258861
-135,114,21,1357,489,258843
-107,113,46,1267,462,258805
-114,99,61,1314,397,258868
-92,79,121,1371,357,258902
-83,55,150,1370,367,258906
-82,28,141,1336,262,258804
-54,19,236,1228,358,258849
-69,24,181,1283,399,258949
-23,49,261,1299,345,258955
-25,46,211,1328,378,258871
4,53,232,1320,364,258754
16,8,232,1274,326,258793
26,-4,166,1337,417,258761
60,6,169,1330,354,258759
34,20,98,1296,323,258855
43,32,81,1360,332,258833
24,59,33,1302,446,258830
24,67,25,1295,400,258790
8,72,-10,1311,426,258761
-12,53,-80,1299,364,258774
2,72,-35,1341,339,258793
-11,76,-73,1270,350,258793
2,80,-65,1264,376,258802
-9,71,-75,1275,391,258803
12,76,-53,1359,364,258823
18,101,3,1363,384,258800
15,90,-21,1293,377,258858
33,90,45,1288,438,258908
18,62,-21,1348,407,258839
20,69,22,1369,353,258926
31,79,0,1346,320,258812
18,100,12,1357,378,258764
10,119,52,1343,381,258824
4,120,5,1340,420,258805
18,118,50,1344,434,258893
18,120,21,1302,377,258887
37,100,30,1305,360,258837
42,79,69,1338,421,258741
58,72,68,1311,395,258928
96,63,124,1307,294,258856
69,51,86,1349,345,258888
96,63,120,1301,354,258765
87,70,91,1397,392,258804
102,69,79,1342,387,258796
103,64,55,1259,335,258869
113,46,-9,1274,312,258857
161,40,4,1392,380,258822
156,52,-76,1303,355,258823
192,75,-43,1262,399,258886
199,101,-89,1350,416,258865
272,127,-89,1311,410,258871
241,154,-42,1352,340,258848
231,161,-97,1244,432,258806
249,163,-21,1272,403,258904
183,146,-97,1313,367,258809
171,175,-11,1305,339,258873
103,183,6,1258,362,258883
105,125,-45,1330,402,258856
75,122,84,1389,335,258825
38,60,-22,1354,346,258914
49,49,77,1343,357,258808
11,36,-42,1347,340,258781
-4,55,-1,1308,366,258889
-16,59,-29,1354,336,258977
-20,37,-118,1366,344,258772
-58,54,40,1352,386,258908
-123,39,-75,1393,374,258989
-109,44,24,1344,292,258892
-204,52,-47,1398,412,258916
-243,74,-31,1275,396,258764
-269,59,1,1303,428,258793
-285,48,-89,1276,480,258798
-263,63,112,1304,409,258819
-277,74,-8,1354,386,258894
-211,59,146,1267,314,258805
-172,66,100,1344,401,258882
-141,67,94,1327,390,258850
-126,96,158,1335,342,258826
-158,66,87,1280,310,258776
-149,82,203,1337,357,258761
-195,118,136,1352,382,258806
-209,110,151,1423,326,258779
-214,105,177,1327,360,258816
-214,70,100,1266,338,258814
-178,42,176,1372,343,258825
-174,-1,87,1335,358,258811
-123,-5,134,1281,361,258831
-99,-9,62,1321,390,258846
-111,3,-7,1366,316,258817
-101,13,38,1394,421,258827
-125,19,-94,1336,382,258858
-109,23,3,1325,354,258704
-158,42,-109,1311,390,258822
-158,85,-31,1308,377,258854
-177,95,-64,1373,387,258904
-181,94,-119,1356,417,258766
-150,114,-12,1361,475,258753
-161,109,-99,1341,418,258923
-94,91,7,1319,323,258766
-84,70,-68,1306,366,258768
-40,94,9,1250,342,258810
-44,87,18,1268,419,258890
-23,50,18,1289,401,258874
34,42,101,1303,355,258771
-12,48,97,1331,377,258831
44,60,139,1349,400,258931
49,87,145,1245,350,258878
70,87,108,1313,358,258794
80,94,132,1335,309,258736
98,62,29,1305,383,258783
145,44,42,1309,376,258810
144,28,-15,1328,350,258794
165,17,-50,1252,354,258907
154,22,-28,1226,370,258797
160,3,-75,1316,388,258799
142,-18,-23,1338,374,258801
110,-60,-63,1313,390,258807
89,-47,50,1276,415,258834
56,-49,57,1310,358,258881
68,-33,99,1277,342,258892
68,-10,125,1387,338,258891
151,-4,101,1176,398,258874
85,19,192,1336,457,258786
324,11,-115,1240,349,258872
252,77,300,1405,435,258856
166,147,51,1257,487,258861
381,133,59,1299,404,258892
354,180,53,1400,404,258784
264,223,103,1325,440,258819
255,223,-96,1298,399,258879
258,271,143,1258,385,258848
154,303,-89,1297,362,258750
168,295,-1,1208,364,258820
119,280,-22,1304,372,258918
102,216,-135,1247,406,258850
163,164,-54,1348,419,258841
83,169,-177,1325,395,258765
56,126,-181,1300,364,258778
102,96,-143,1251,308,258731
54,74,-134,1388,377,258864
-30,70,-136,1369,342,258874
-64,29,-18,1319,335,258882
-108,66,-24,1374,421,258931
-155,59,90,1364,426,258905
-209,43,0,1311,365,258854
-226,73,155,1315,422,258750
-234,72,57,1323,348,258806
-175,67,47,1293,373,258850
-211,79,124,1260,371,258825
-234,86,150,1306,393,258790
-177,71,232,1292,355,258799
-186,25,115,1242,342,258860
-179,57,40,1295,383,258748
-208,42,99,1352,415,259049
-239,32,117,1355,405,258847
-191,39,168,1301,390,258903
-287,39,79,1316,376,258755
-264,64,56,1330,325,258780
-235,39,73,1370,373,258767
-229,74,-44,1280,401,258767
-230,80,-42,1211,445,258729
-196,77,-122,1347,400,258773
-125,80,-89,1317,412,258830
-156,61,-93,1329,362,258802
-176,53,-33,1248,278,258832
-121,29,-8,1307,352,258832
-165,30,-51,1295,412,258749
-218,60,81,1248,408,258815
-201,62,52,1243,424,258730
-140,82,84,1241,420,258761
-161,115,130,1367,361,258826
-164,108,81,1340,408,258752
-65,86,132,1358,368,258784
-50,34,46,1362,327,258788
-8,77,60,1346,340,258757
10,83,31,1263,390,258771
57,79,-41,1298,349,258797
67,135,97,1304,424,258811
38,117,-22,1422,388,258876
52,134,74,1370,442,258724
-4,104,8,1311,410,258768
8,120,47,1232,400,258918
46,83,60,1304,405,258947
22,91,-72,1265,392,258861
17,106,83,1275,383,258818
42,63,-55,1261,367,258809
119,22,76,1363,338,258870
107,-55,19,1298,369,258745
110,-31,17,1331,367,258757
142,-76,80,1273,417,258744
130,-91,15,1344,390,258825
108,-55,124,1338,388,258837
78,-43,18,1336,427,258804
78,-38,71,1289,349,258768
79,-9,23,1365,416,258879
61,8,-7,1354,332,258908
63,-7,14,1312,381,258952
93,-4,-12,1309,398,258814
122,22,-19,1305,404,258830
87,51,-4,1318,342,258868
60,57,-26,1312,391,258808
120,79,29,1257,405,258876
74,116,-34,1342,363,258917
9,165,37,1279,299,258837
-2,156,37,1326,320,258911
105,168,33,1302,322,258868
-19,222,95,1345,439,258839
-16,208,16,1220,398,258935
44,226,122,1329,459,258797
75,194,-24,1320,408,258753
94,219,70,1300,351,258828
76,184,-39,1300,317,258748
159,170,-15,1353,361,258854
165,112,-37,1263,338,258700
120,137,-60,1274,412,258790
78,126,-5,1312,332,258825
78,105,-69,1317,393,258785
25,108,6,1332,414,258702
-43,96,-49,1336,395,258746
-25,54,50,1395,337,258760
-28,28,-12,1351,319,258726
-44,30,77,1309,377,258709
-32,1,68,1305,396,258891
15,-27,112,1343,362,258870
44,-45,59,1310,373,258852
19,-32,58,1319,365,258806
17,-29,57,1302,332,258874
24,-12,37,1299,367,258923
1,3,12,1324,364,258846
-33,40,-9,1234,411,258723
-96,76,61,1295,323,258792
-105,102,-24,1294,398,258880
-155,128,16,1268,429,258790
-183,156,-63,1314,340,258786
-191,187,13,1289,329,258822
-188,164,-46,1352,307,258789
-183,170,10,1352,425,258750
-199,179,-40,1243,409,258842
-191,181,1,1346,452,258733
-218,183,10,1312,443,258773
-220,183,-3,1329,398,258795
-242,181,34,1272,423,258827
-262,179,55,1220,416,258806
-265,160,121,1288,355,258809
-279,164,120,1355,399,258748
-251,132,161,1365,359,258793
-242,126,141,1297,390,258885
-208,99,171,1328,441,258818
-175,63,101,1290,363,258780
-149,25,107,1222,448,258720
-131,-5,56,1298,362,258842
-100,-31,33,1338,453,258796
-88,-64,-23,1291,373,258781
-83,-51,-61,1336,385,258899
-78,-42,-99,1333,431,258884
-78,-31,-121,1311,391,258898
-80,-11,-112,1373,478,258792
-66,9,-125,1312,382,258827
-48,9,-84,1312,343,258781
-7,-6,-53,1311,388,258788
24,-20,9,1331,386,258861
60,-47,37,1323,301,258932
123,-71,78,1294,344,258921
152,-85,80,1317,369,258876
180,-76,110,1360,380,258840
186,-55,120,1316,376,258828
188,-34,135,1309,383,258848
198,-30,125,1317,340,258869
195,-10,124,1302,286,258820
193,-3,108,1293,337,258873
196,30,90,1300,379,258885
195,48,72,1314,409,258852
181,48,25,1403,332,258834
184,65,51,1331,341,258864
178,56,10,1254,392,258885
153,63,52,1272,436,258939
144,56,20,1264,306,258918
131,52,26,1340,400,258913
108,50,3,1402,412,258884
88,53,-13,1338,328,258763
102,82,-38,1329,362,258727
85,121,-78,1334,415,258851
85,156,-70,1320,373,258847
75,178,-74,1342,371,258765
90,184,-42,1355,350,258803
122,193,-55,1290,427,258816
118,199,-57,1319,390,258772
110,211,-19,1274,407,258738
105,215,-22,1312,359,258789
90,221,5,1346,417,258881
55,229,7,1375,459,258846
8,223,21,1281,389,258876
-42,221,17,1287,383,258803
-80,218,20,1236,406,258796
-107,221,37,1300,372,258846
-143,195,68,1325,357,258901
-160,173,54,1281,339,258922
-177,155,76,1298,335,258838
-189,143,98,1315,385,258894
-203,152,120,1327,380,258819
-230,136,102,1365,317,258807
-246,134,131,1257,332,258891
-275,136,112,1289,365,258811
-296,90,79,1299,362,258838
-325,88,56,1312,405,258831
-345,78,-5,1319,423,258842
-333,71,-4,1284,420,258865
-345,59,-75,1373,368,258962
-331,73,-43,1333,350,258797
-325,74,-67,1297,393,258760
-298,94,-52,1310,358,258828
-289,91,-2,1334,409,258818
-268,123,40,1378,369,258706
-225,111,75,1315,442,258783
-201,111,56,1288,391,258814
-171,108,134,1355,350,258904
-136,82,99,1384,321,258925
-92,58,128,1354,316,258873
-67,41,91,1276,429,258866
-17,39,106,1292,389,258751
1,16,68,1253,387,258808
52,-15,47,1283,396,258794
61,-44,11,1310,366,258856
82,-51,-1,1272,353,258834
90,-74,25,1314,335,258835
85,-75,-7,1329,356,258855
67,-62,40,1291,375,258843
47,-58,-7,1274,317,258794
47,-47,73,1342,384,258752
45,-59,-19,1313,403,258756
58,-45,72,1264,382,258812
58,-65,-25,1369,385,258773
105,-68,45,1366,346,258813
121,-76,-29,1325,410,258864
132,-50,24,1287,405,258930
131,-53,7,1329,411,258843
163,-29,13,1350,397,258744
156,-22,3,1387,398,258853
137,22,22,1365,370,258831
124,51,67,1338,374,258917
128,84,27,1370,361,258838
137,92,55,1280,332,258863
127,123,-4,1331,355,258831
144,110,16,1321,474,258876
158,83,-56,1291,441,258814
199,91,-63,1349,424,258891
200,91,-84,1351,383,258823
190,97,-45,1226,363,258734
202,86,-40,1239,368,258718
187,69,-8,1283,423,258743
137,71,48,1283,423,258832
106,38,77,1336,402,258847
78,-8,115,1380,339,258790
48,-7,68,1293,319,258809
18,-18,90,1313,377,258860
2,-19,31,1258,393,258836
22,-29,30,1326,358,258786
65,-13,-11,1346,295,258816
85,9,-16,1366,295,258728
116,31,-40,1312,298,258779
156,50,-9,1342,371,258833
160,88,-21,1318,407,258888
144,117,17,1275,438,258787
129,101,23,1293,376,258843
99,127,44,1350,404,258778
66,145,55,1325,349,258773
35,169,64,1373,307,258831
15,188,86,1358,337,258802
8,183,58,1373,314,258775
-14,184,73,1361,458,258888
-26,194,34,1337,456,258830
-25,190,47,1320,406,258817
-7,175,1,1348,381,258795
-3,197,34,1391,404,258768
-36,214,4,1329,424,258824
-30,234,57,1281,388,258842
-22,231,23,1280,254,258849
-144,208,23,1289,322,258768
10,243,124,1270,324,258790
-234,244,-196,1411,392,258933
-237,314,303,1290,359,258869
-165,191,-177,1341,426,258917
-264,242,151,1320,420,258844
-339,206,60,1349,440,258839
-272,194,-93,1251,380,258802
-208,120,76,1328,407,258897
-232,161,-59,1376,377,258888
-270,92,-59,1377,428,258750
-265,122,-6,1361,391,258769
-209,41,-73,1256,425,258841
-254,77,-66,1338,336,258825
-301,77,-21,1257,349,258821
-303,134,-50,1266,360,258815
-256,109,98,1265,382,258834
-307,117,-8,1429,375,258785
-299,114,103,1302,362,258798
-280,48,12,1293,348,258821
-270,39,39,1303,361,258843
-268,24,76,1337,379,258903
-228,-23,15,1350,340,258854
-197,2,72,1345,366,258870
-156,-54,39,1304,425,258824
-120,-31,28,1304,358,258798
-94,-38,101,1321,414,258781
-98,-52,10,1305,394,258826
-80,-22,99,1358,383,258810
-104,-55,84,1314,412,258787
-94,7,85,1305,380,258781
-55,-3,130,1288,465,258864
-86,24,43,1304,366,258898
-18,41,119,1303,338,258789
29,-15,80,1316,391,258746
15,-8,27,1365,364,258837
86,-52,22,1311,415,258884
127,-49,-23,1307,377,258828
136,-22,4,1350,342,258861
181,-30,-29,1269,385,258875
212,-2,-7,1308,387,258795
244,-11,-3,1254,401,258802
230,1,11,1312,332,258846
246,15,45,1291,329,258851
246,-16,11,1346,384,258928
255,10,32,1341,396,258861
220,-2,48,1386,431,258842
204,7,77,1334,343,258853
222,-29,113,1268,344,258886
220,-70,59,1291,443,258778
223,-41,106,1279,380,258835
223,-53,91,1325,362,258874
248,-53,48,1303,358,258874
251,-25,49,1343,413,258788
204,-1,-2,1361,410,258828
225,28,8,1316,404,258736
171,43,13,1294,428,258791
133,89,-57,1357,337,258851
98,104,12,1270,374,258838
62,104,-29,1281,393,258907
18,129,-20,1327,370,258762
8,130,-8,1300,405,258793
11,168,-8,1292,348,258805
2,182,19,1257,338,258872
10,201,22,1346,361,258865
16,206,62,1309,324,258808
35,200,32,1322,419,258830
31,223,78,1324,388,258904
31,222,39,1217,352,258926
27,260,65,1328,398,258840
-3,275,39,1266,326,258873
-20,294,83,1299,324,258859
-47,288,90,1309,456,258928
-73,243,58,1309,388,258827
-110,240,49,1302,360,258821
-154,230,35,1346,409,258787
-168,200,-13,1283,422,258813
-184,181,-31,1192,418,258894
-192,161,-31,1219,322,258796
-189,152,-45,1277,323,258890
-198,142,-65,1326,365,258828
-190,124,-53,1267,418,258817
-180,102,-76,1290,368,258899
-218,98,-55,1239,361,258931
-221,88,-40,1275,301,258740
-210,74,-73,1262,338,258716
-226,64,-31,1255,362,258787
-235,52,-66,1220,390,258865
-248,58,14,1263,355,258828
-247,43,-14,1319,372,258824
-239,43,18,1247,374,258774
-234,22,11,1250,417,258784
-212,33,-17,1279,410,258865
-170,31,-8,1285,366,258766
-138,30,-32,1263,406,258814
-110,75,-42,1324,383,258896
-83,75,-56,1325,336,258934
-48,107,-38,1354,336,258822
-45,118,-40,1369,317,258801
-57,105,2,1322,352,258793
-71,105,-24,1327,366,258814
-90,83,-5,1278,364,258793
-115,66,-7,1243,317,258833
-130,70,8,1240,320,258856
-122,26,46,1232,329,258875
-104,40,70,1306,337,258880
-90,21,89,1370,417,258825
-54,-6,131,1326,324,258814
-7,-20,91,1284,373,258859
30,-43,129,1292,350,258781
56,-38,103,1268,418,258869
62,-22,95,1323,444,258926
66,-20,141,1396,424,258853
73,3,129,1329,339,258866
42,1,152,1340,304,258853
37,-14,146,1329,269,258860
35,-24,138,1332,419,258891
31,-24,128,1332,369,258859
29,-48,109,1345,309,258833
29,-25,131,1355,367,258789
50,-34,28,1329,368,258911
74,-23,112,1292,387,258849
68,20,39,1290,392,258757
99,23,23,1313,342,258762
153,5,50,1396,306,258794
135,59,-30,1304,375,258836
174,8,-34,1314,440,258822
176,22,37,1378,371,258782
163,28,-55,1344,416,258804
173,-42,27,1244,386,258817
169,3,17,1274,367,258780
172,6,-17,1294,404,258757
200,-24,73,1248,343,258839
164,54,25,1314,334,258786
225,34,-11,1332,412,258779
236,21,29,1362,402,258742
229,93,-30,1402,406,258669
255,50,-52,1254,453,258830
311,93,31,1296,395,258809
259,141,-43,1332,349,258790
274,130,14,1234,366,258839
279,149,8,1383,332,258859
243,157,-29,1344,362,258859
195,123,51,1321,406,258885
140,127,-17,1313,245,258854
121,115,48,1334,284,258853
63,112,34,1334,360,258837
15,154,5,1268,461,258771
19,142,23,1333,355,258912
15,173,-14,1359,334,258793
6,194,-11,1381,400,258757
19,182,-38,1361,386,258761
0,196,-33,1251,326,258729
-21,195,-45,1244,349,258767
-48,202,6,1207,440,258762
-103,226,30,1324,451,258783
-151,183,77,1341,407,258878
-208,198,79,1270,294,258831
-262,159,72,1350,452,258754
-303,99,90,1377,350,258814
-367,125,52,1361,299,258768
-391,88,88,1269,412,258857
-376,63,78,1364,373,258843
-428,127,-17,1308,409,258795
-396,76,55,1302,370,258812
-368,99,-56,1274,364,258645
-379,130,-40,1266,355,258704
-378,53,-25,1246,373,258863
-371,94,-113,1283,417,258822
-366,60,-15,1239,339,258930
-364,28,-18,1277,307,258916
-371,87,-34,1311,280,258886
-383,42,111,1324,390,258833
-353,61,59,1282,393,258842
-356,88,96,1259,444,258837
-349,48,139,1278,385,258867
-301,123,73,1284,436,258917
-267,126,153,1341,417,258814
-202,119,130,1246,359,258835
-141,148,85,1206,404,258731
-68,138,128,1310,476,258771
-3,143,36,1377,395,258854
47,130,36,1335,427,258885
98,94,20,1315,465,258747
130,82,-73,1374,367,258707
158,59,-16,1316,386,258792
178,43,-41,1302,346,258818
195,27,-71,1277,286,258554
194,30,4,1305,369,258895
178,17,-44,1272,437,258768
171,-10,-29,1256,431,258782
151,-19,-8,1301,383,258880
153,-42,-34,1326,316,258824
149,-52,-2,1324,319,258771
124,-36,-7,1352,361,258857
138,-52,-15,1353,374,258829
149,-42,12,1328,439,258870
169,-49,4,1311,378,258849
153,-73,-15,1250,399,258862
161,-86,-3,1333,334,258776
164,-96,9,1352,342,258836
138,-105,-5,1327,334,258898
123,-77,29,1371,435,258820
122,-61,17,1301,387,258862
115,-11,21,1333,400,258954
82,24,56,1245,374,258890
76,30,68,1305,399,258838
72,34,51,1265,346,258878
48,28,86,1300,395,258880
54,46,56,1320,368,258804
56,53,63,1268,440,258836
50,68,82,1331,503,258949
49,99,57,1272,435,258982
35,95,94,1274,331,258819
34,99,100,1348,324,258840
27,132,90,1351,385,258835
-4,128,103,1262,416,258724
-23,171,97,1307,382,258760
-32,201,101,1282,395,258838
-67,222,75,1375,412,258813
-57,260,89,1314,377,258759
-54,259,79,1288,435,258815
-72,255,41,1249,328,258857
-24,238,47,1258,350,258706
-19,214,13,1312,323,258795
-1,181,-27,1293,346,258888
58,170,-15,1294,357,258827
49,154,-61,1307,397,258754
65,154,-90,1266,331,258797
67,159,-32,1284,341,258818
56,147,-30,1313,380,258811
14,134,-57,1330,340,258883
0,158,10,1335,394,258791
-21,176,32,1302,417,258814
-60,147,0,1267,348,258883
-72,169,94,1286,307,258835
-79,147,33,1328,293,258772
-73,104,111,1322,431,258785
-71,69,26,1274,393,258826
-85,26,36,1262,360,258806
-72,-2,53,1288,392,258837
-86,3,-20,1283,420,258796
-55,-20,-19,1334,371,258803
-69,-26,-29,1359,355,258888
-87,-22,-45,1325,346,258873
-85,-41,-20,1307,353,258893
-107,-41,-37,1234,294,258801
-159,15,-7,1354,369,258811
-155,41,-26,1348,311,258828
-142,46,-13,1344,366,258834
-173,89,10,1305,351,258926
-153,76,-8,1288,418,258871
-128,102,28,1415,380,258793
-135,106,39,1369,330,258848
-122,88,84,1397,374,258764
-133,97,47,1313,378,258766
-97,90,60,1286,333,258863
-105,109,67,1275,306,258899
-109,123,84,1188,354,258813
-98,106,71,1192,417,258912
-89,119,88,1278,354,258849
-94,112,110,1326,315,258827
-90,126,108,1339,384,258818
-109,163,134,1331,386,258787
-75,150,107,1287,404,258793
-81,171,78,1327,360,258833
-72,170,63,1244,425,258732
-38,153,38,1294,412,258679
13,138,-9,1329,424,258799
34,97,12,1306,403,258764
60,55,0,1396,388,258768
114,38,-47,1379,350,258798
132,9,-45,1372,400,258894
145,-38,-47,1322,425,258809
156,-16,14,1327,376,258872
159,-71,-37,1308,456,258832
189,-50,70,1295,389,258776
149,-50,40,1360,397,258794
143,-54,11,1323,382,258743
166,-32,88,1288,422,258866
102,-9,31,1297,392,258860
127,-72,-9,1288,344,258865
154,-38,51,1337,391,258801
92,-66,-51,1354,421,258888
149,-114,-52,1333,413,258778
185,-102,34,1290,357,258805
136,-111,-103,1275,298,258797
177,-104,-45,1243,293,258734
195,-51,-13,1309,452,258779
157,-38,-56,1314,379,258892
124,-5,-26,1305,366,258803
117,64,-15,1356,397,258915
61,81,-25,1346,401,258834
66,106,39,1288,382,258810
36,134,-6,1260,391,258869
35,151,24,1285,421,258962
23,181,16,1300,390,258853
19,191,-6,1306,341,258807
23,168,29,1280,403,258852
12,153,27,1362,349,258748
3,117,1,1387,359,258684
-17,101,-67,1343,386,258923
-53,111,17,1300,369,258835
-83,114,37,1333,330,258767
-101,131,33,1356,387,258864
-138,150,91,1303,400,258920
-130,177,132,1334,376,258939
-151,203,97,1386,355,258713
-168,204,154,1315,373,258785
-173,232,150,1279,389,258943
-197,253,149,1318,397,258848
-186,227,157,1303,393,258752
-161,215,76,1284,292,258700
-190,181,104,1294,297,258792
-178,129,35,1303,384,258761
-192,124,13,1338,455,258814
-183,67,57,1295,372,258826
-203,30,-53,1222,405,258715
-236,42,-81,1350,359,258791
-203,16,17,1342,369,258908
-244,64,-38,1364,346,258913
-248,47,31,1337,354,258894
-231,66,87,1287,315,258899
-255,96,-20,1250,366,258761
-203,76,95,1277,464,258801
-240,123,57,1237,447,258887
-237,119,35,1284,429,258946
-153,100,117,1268,292,258828
-161,95,-5,1362,408,258936
-101,61,39,1353,361,258877
-16,46,53,1275,306,258866
-37,16,-89,1302,325,258756
55,-7,21,1291,340,258804
55,28,-23,1321,372,258855
0,36,-61,1352,401,258774
112,10,-27,1277,350,258829
46,62,-35,1298,371,258840
12,88,-34,1289,306,259022
67,92,74,1283,312,258766
-18,102,74,1335,383,258763
128,70,-108,1315,424,258845
-17,98,89,1457,410,258841
-56,149,23,1193,313,258769
112,35,109,1376,369,258894
37,72,-19,1367,342,258853
15,1,23,1231,385,258765
114,17,-214,1349,355,258763
127,-66,54,1342,382,258859
74,43,-43,1392,331,258909
37,25,40,1245,407,258901
39,39,-58,1413,352,258827
72,33,24,1262,353,258802
32,86,124,1413,373,258830
-50,81,-49,1241,365,258786
-4,144,139,1368,382,258698
-31,97,51,1252,361,258792
-25,125,92,1287,370,258860
-36,78,140,1340,340,258771
24,8,8,1352,355,258783
53,79,-3,1328,374,258839
33,54,137,1222,363,258833
56,-25,-119,1280,334,258936
42,-65,84,1264,335,258768
59,-99,-34,1357,328,258841
55,-29,-108,1330,377,258899
28,-72,8,1305,360,258841
63,-38,14,1296,380,258778
43,-51,-84,1262,413,258820
33,-15,-15,1325,346,258724
18,66,-35,1311,386,258872
-2,70,40,1286,439,259024
-38,134,112,1291,343,258841
-36,152,47,1239,391,258768
25,90,109,1269,333,258724
30,134,10,1359,344,258873
30,127,47,1339,437,258793
40,131,92,1305,364,258795
65,111,72,1299,355,258811
81,104,84,1314,380,258799
113,64,9,1291,363,258837
98,38,-44,1293,399,258912
65,43,96,1300,417,258834
29,57,85,1323,358,258831
10,77,108,1329,382,258845
7,83,113,1308,340,258812
-42,83,54,1343,412,258810
-70,86,136,1311,395,258877
-99,86,59,1283,358,258893
-97,91,48,1295,368,258891
-111,90,33,1323,363,258826
-99,86,51,1313,384,258753
-49,56,-18,1347,414,258826
-98,72,20,1370,401,258818
-91,83,-64,1356,396,258851
-111,124,45,1287,440,258742
-112,103,27,1313,462,258816
-112,145,34,1335,317,258751
-120,165,75,1347,385,258859
-120,181,39,1278,427,258876
-108,176,124,1265,370,258877
-119,166,119,1288,385,258744
-86,163,179,1343,401,258832
-31,156,128,1292,418,258876
7,169,77,1382,386,258958
28,180,30,1316,399,258834
70,194,67,1264,392,258795
127,199,22,1196,342,258746
148,189,6,1242,344,258687
161,161,-58,1394,339,258807
193,159,-49,1342,402,258895
156,165,-31,1294,340,258882
137,150,-33,1247,378,258768
133,151,-20,1298,399,258809
83,143,50,1341,351,258901
65,119,56,1342,302,258846
44,111,55,1262,368,258915
-2,64,63,1302,373,258868
-16,75,66,1227,407,258799
-37,35,66,1286,430,258848
-38,-9,20,1300,390,258842
-25,-16,18,1367,311,258823
-12,-18,-24,1295,396,258835
8,-37,-45,1344,413,258928
33,-43,-35,1350,380,258855
0,-49,-30,1331,395,258868
-5,-46,-23,1256,444,258881
29,-25,-8,1315,376,258831
5,-58,-180,1349,443,258828
2,0,156,1324,348,258833
-22,-17,-83,1326,352,258796
-51,0,-23,1318,329,258733
-52,18,51,1318,365,258819
-95,25,-138,1280,301,258848
-119,22,39,1358,373,258867
-125,58,-33,1313,342,258839
-117,37,-41,1331,345,258997
-115,79,-49,1347,335,258892
-61,68,0,1336,362,258924
-18,63,-65,1397,382,258890
4,62,-14,1323,494,258871
-17,103,-50,1388,380,258836
-4,105,6,1330,434,258882
-26,144,36,1327,386,258898
-33,157,41,1353,413,258808
-54,163,62,1319,375,258773
-66,166,36,1227,316,258860
-78,191,139,1292,388,258789
-105,143,73,1258,382,258846
-113,137,80,1340,381,258804
-143,111,27,1300,358,258734
-137,99,41,1374,373,258797
-117,76,8,1346,309,258808
-122,76,34,1347,293,258809
-93,58,-21,1258,358,258893
-39,21,-18,1301,395,258853
-38,18,-24,1361,410,258828
-28,-1,-19,1291,367,258834
-34,5,-20,1203,423,258834
-35,13,8,1265,434,259022
-31,24,24,1274,363,258859
-32,55,10,1303,380,258759
-32,50,22,1441,374,258774
-36,50,17,1407,417,258766
-30,54,30,1346,342,258755
-32,36,10,1353,351,258764
-40,61,26,1368,370,258902
-25,72,-2,1337,394,258786
-4,89,35,1307,370,258791
4,78,88,1349,409,258908
33,44,90,1328,382,258791
70,43,95,1292,370,258849
86,30,69,1227,333,258929
57,67,117,1311,367,258821
48,68,137,1323,386,258886
51,64,176,1315,347,258839
40,76,133,1300,386,258848
25,98,85,1264,414,258748
18,126,43,1268,416,258743
11,124,52,1291,450,258776
-3,117,27,1353,521,258833
3,93,-5,1300,524,258779
-18,85,35,1297,443,258847
43,55,-60,1396,332,258869
46,54,-55,1334,348,258788
16,53,-44,1304,378,258799
23,89,32,1248,420,258779
42,26,44,1363,377,258752
14,8,62,1325,385,258769
-3,15,46,1403,390,258817
-39,28,30,1310,361,258807
-48,33,50,1376,358,258753
-80,78,200,1326,376,258842
-80,67,168,1273,391,258813
-13,54,81,1336,381,258851
-17,82,58,1281,431,258829
-61,110,-42,1312,348,258759
-72,166,13,1335,396,258740
-68,150,-8,1344,409,258905
-36,154,-30,1312,365,258848
-23,130,-155,1338,393,258784
-23,128,-95,1356,366,258679
-13,139,-193,1297,365,258850
9,131,-39,1269,344,258845
-53,115,-78,1280,392,258839
-24,97,-41,1227,412,258812
13,59,-95,1315,417,258847
-31,105,-106,1287,357,258748
-75,155,-53,1336,370,258767
-45,147,-54,1313,387,258796
-56,141,8,1271,441,258794
-50,73,-71,1261,333,258914
-29,54,-105,1245,344,258862
0,14,-151,1330,381,258821
-10,59,26,1366,393,258886
-31,48,-54,1308,397,258795
16,20,117,1364,386,258767
68,-9,17,1342,409,258813
22,-37,79,1358,443,258720
-30,-40,146,1386,339,258728
-7,-5,252,1377,432,258872
-49,-3,207,1269,429,258791
-104,-4,217,1321,394,258818
-159,24,226,1202,403,258805
-122,-16,205,1323,381,258874
-148,39,255,1294,334,258836
-176,61,136,1294,310,258883
-92,50,134,1286,400,258808
-21,23,8,1322,453,258764
-34,53,64,1371,388,258759
-34,39,-68,1260,380,258876
46,88,-83,1350,446,258793
76,124,-67,1299,479,258915
58,186,-59,1397,337,258906
3,175,-74,1327,363,258870
2,158,-49,1404,335,258813
-22,177,-96,1368,352,258831
-106,152,-98,1251,328,258759
-117,170,-30,1268,280,258807
-120,198,-56,1277,350,258794
-172,203,-1,1302,306,258829
-205,217,-3,1246,324,258867
-212,187,-7,1222,266,258838
-190,158,-18,1271,358,258805
-168,111,-29,1307,457,258863
-148,127,9,1290,343,258768
-168,196,31,1322,353,258860
-70,84,125,1311,368,258939
-100,26,107,1354,377,258866
-106,39,103,1306,319,258771
-85,3,75,1295,395,258788
-81,43,157,1362,370,258855
-195,51,208,1336,417,258752
-188,40,106,1306,383,258781
-121,0,150,1293,325,258839
-97,-11,110,1352,336,258813
-74,-64,74,1271,322,258873
-50,-45,101,1338,375,258839
10,-37,25,1296,353,258782
76,-8,15,1295,335,258706
81,-5,-8,1230,329,258734
67,-8,-35,1336,384,258744
133,16,7,1353,400,258661
183,22,-61,1342,403,258850
146,99,-4,1287,370,258834
154,106,-28,1314,370,258839
167,141,109,1235,361,258873
149,107,112,1238,408,258888
139,135,119,1254,453,258762
138,128,46,1284,352,258893
161,119,99,1265,342,258953
150,111,80,1308,407,258902
144,110,119,1335,390,258823
152,85,61,1322,368,258744
169,94,59,1327,386,258848
163,95,37,1263,396,258797
165,98,-3,1273,317,258772
141,129,20,1295,304,258747
159,137,-16,1319,350,258770
87,136,100,1289,376,258780
78,102,84,1302,347,258805
62,80,104,1341,361,258781
31,54,68,1332,410,258894
28,38,51,1300,459,258802
11,63,68,1349,364,258687
-6,61,42,1286,406,258798
21,26,-2,1336,370,258760
45,-13,-75,1360,377,258746
41,-42,-54,1301,354,258924
30,-62,-88,1260,427,258783
4,-54,-16,1326,390,258796
24,-20,-103,1297,338,258791
1,13,-66,1323,378,258792
-23,6,13,1276,383,258893
-37,25,85,1233,321,258923
-14,18,47,1350,435,258926
-24,59,108,1369,413,258895
-34,86,63,1343,352,258858
-53,86,45,1366,350,258816
-69,98,19,1284,374,258800
-44,81,-32,1248,372,258832
-36,99,-127,1340,339,258788
2,101,-202,1375,342,258875
50,97,-161,1353,292,258854
74,100,-235,1347,334,258893
60,118,-205,1282,396,258862
71,77,-209,1298,333,258744
82,94,-147,1367,290,258749
49,103,-75,1309,357,258825
7,116,-1,1262,381,258935
-12,116,13,1285,368,258918
-56,153,98,1320,432,258857
-141,152,129,1319,423,258910
-152,134,161,1348,389,258806
-174,135,139,1357,300,258861
-193,114,110,1319,326,258843
-205,89,117,1285,368,258777
-217,62,64,1284,415,258798
-204,36,57,1348,367,258790
-152,29,-1,1265,391,258798
-125,35,-58,1221,465,258844
-110,44,-26,1329,462,258827
-112,59,37,1349,405,258833
-108,56,28,1265,438,258809
-106,73,5,1316,431,258851
-122,72,63,1334,425,258883
-139,65,65,1316,363,258779
-141,76,98,1369,378,258760
-147,108,125,1327,353,258784
-160,113,117,1352,365,258757
-120,99,77,1373,420,258790
-127,89,81,1323,362,258768
-91,43,33,1335,406,258841
-37,35,32,1325,343,258808
3,27,-17,1354,387,258898
17,16,-5,1372,332,258950
30,14,6,1248,326,258799
10,45,30,1243,373,258890
61,49,95,1282,350,258772
49,76,69,1306,394,258820
-6,99,141,1321,339,258810
17,88,144,1311,358,258842
29,98,161,1456,338,258968
-30,100,146,1358,387,258815
-50,128,109,1355,405,258826
-25,106,53,1284,353,258873
-10,89,28,1291,347,258850
-31,91,-2,1259,457,258770
-23,78,-45,1263,397,258809
25,51,-90,1306,371,258748
39,48,-105,1307,392,258849
6,39,-103,1333,384,258707
14,30,-91,1353,371,258800
-3,61,-33,1368,350,258826
-48,74,-27,1323,359,258859
-95,98,6,1352,345,258892
-125,109,66,1210,394,258856
-124,122,105,1331,343,258830
-107,108,78,1316,334,258822
-100,104,58,1268,361,258911
-95,111,74,1280,436,258839
-62,103,63,1332,341,258819
-26,97,14,1373,350,258907
5,114,5,1402,360,258912
27,124,-69,1307,373,258865
63,122,-31,1301,418,258829
75,122,1,1276,384,258890
70,140,-7,1336,334,258810
69,130,-11,1304,390,258781
55,131,16,1296,363,258777
48,141,81,1317,370,258795
32,120,102,1294,397,258868
45,112,145,1345,405,258914
58,110,147,1358,410,258853
47,81,121,1373,450,258783
59,53,134,1302,405,258908
91,37,58,1313,407,258878
101,37,9,1309,465,258872
120,19,4,1317,396,258852
112,14,39,1335,313,258815
132,-3,19,1311,303,258835
125,-22,-16,1329,335,258855
97,-6,-23,1340,341,258774
71,23,0,1312,373,258820
55,15,41,1277,342,258754
27,24,108,1278,341,258708
41,26,62,1278,392,258870
38,13,83,1365,375,258859
47,-4,68,1327,375,258909
29,2,15,1353,441,258862
11,9,13,1344,375,258867
31,19,-96,1332,308,258803
18,48,-125,1321,317,258887
31,53,-127,1304,358,258802
53,53,-170,1325,413,258814
64,97,-148,1381,375,258780
73,96,-91,1288,326,258968
84,126,-63,1324,450,258846
56,161,42,1314,408,258779
31,160,70,1364,390,258833
4,181,88,1319,383,258780
-52,194,83,1334,402,258744
-68,167,134,1330,350,258768
-86,161,87,1310,279,258801
-119,137,111,1335,382,258724
-134,113,34,1320,374,258813
-136,94,45,1232,293,258765
-172,84,101,1318,392,258736
-158,24,9,1322,402,258774
-148,71,36,1292,360,258733
-132,45,35,1269,414,258793
-106,42,28,1341,403,258847
-92,84,127,1338,340,258860
-114,43,80,1342,421,258839
-112,89,119,1344,375,258702
-102,58,105,1324,376,258742
-162,52,110,1344,374,258803
-171,57,84,1280,431,258838
-127,12,70,1289,436,258808
-118,57,62,1191,384,258868
-151,35,11,1317,390,258856
-163,48,-20,1338,323,258802
-96,52,-34,1314,345,258852
-106,72,-35,1249,332,258856
-126,78,-72,1409,342,258665
-93,88,13,1271,363,258814
-68,87,-2,1258,400,258849
-78,104,-5,1288,352,258784
-96,96,35,1282,358,258751
-77,128,28,1285,403,258821
-106,88,37,1265,331,258907
-139,103,95,1303,342,258779
-127,48,64,1341,419,258759
-99,13,85,1351,440,258802
-38,-39,64,1312,384,258823
-34,-26,5,1311,325,258815
26,-24,13,1279,435,258803
92,-17,-55,1321,383,258824
107,26,-89,1323,346,258810
86,49,-149,1361,410,258842
84,44,-151,1349,389,258794
79,116,-42,1303,380,258880
71,136,-143,1316,463,258877
62,187,-117,1319,340,258777
27,227,58,1205,362,258895
5,169,-66,1307,404,258746
0,184,17,1341,423,258772
-35,141,57,1343,436,258774
-15,117,-14,1323,365,258824
25,114,71,1368,399,258769
-25,83,27,1287,375,258740
-13,127,70,1315,384,258856
40,97,68,1285,382,258889
39,97,90,1268,361,258830
1,96,80,1313,418,258805
32,94,82,1355,395,258847
56,128,120,1347,420,258793
42,130,80,1380,406,258785
54,148,86,1267,359,258931
73,144,121,1296,351,258887
60,103,88,1442,403,258713
53,79,91,1414,463,258831
60,31,49,1316,399,258792
49,-3,17,1323,451,258790
40,-22,33,1353,446,258826
39,-11,-13,1375,308,258761
44,-9,16,1306,416,258824
23,-16,-1,1230,389,258809
76,-86,41,1323,316,258817
18,21,-116,1265,307,258850
-76,-63,-128,1289,363,258874
-44,74,303,1288,324,258845
-40,-29,-83,1266,468,258880
-67,40,-96,1359,370,258847
-23,70,91,1274,376,258909
-16,24,-36,1288,390,258926
-46,19,0,1273,383,258744
-72,76,78,1337,442,258902
4,-23,-31,1259,358,258859
51,-2,87,1411,311,258762
-26,-40,10,1279,349,258792
20,1,49,1342,401,258752
88,9,-25,1203,437,258834
76,58,35,1284,377,258787
33,48,-29,1269,383,258889
29,86,83,1231,316,258790
53,88,86,1301,384,258842
20,145,-22,1310,410,258770
-11,131,3,1318,417,258759
-27,218,45,1278,343,258696
-1,175,-23,1322,397,258831
19,199,-2,1272,397,258744
-47,212,-85,1308,448,258754
-56,206,-23,1338,419,258878
-68,205,-28,1288,395,258875
-75,196,-55,1327,415,258772
-94,218,-58,1251,390,258763
-98,229,6,1239,412,258976
-89,210,61,1264,390,258864
-117,205,93,1282,388,258872
-129,164,108,1290,415,258688
-132,178,177,1337,366,258774
-134,160,159,1352,458,258835
-143,170,218,1314,366,258827
-128,169,208,1286,388,258825
-107,175,180,1391,461,258841
-83,145,185,1336,405,258819
-68,97,101,1254,411,258821
-72,60,72,1286,416,258827
-57,8,33,1310,391,258776
-40,34,-33,1305,408,258789
-50,-5,-44,1318,344,258778
-34,-5,-33,1256,380,258800
-35,2,-90,1281,324,258819
-37,-4,-45,1269,322,258791
-64,16,-31,1299,439,258806
-80,25,1,1375,421,258909
-85,23,43,1293,429,258898
-76,34,22,1302,417,258853
-80,46,26,1301,455,258862
-94,47,30,1370,377,258963
-90,61,17,1329,362,258865
-81,9,45,1311,367,258770
-70,-13,43,1303,387,258768
-58,-42,5,1319,351,258846
-41,-62,72,1318,301,258950
-12,-54,32,1330,373,258881
6,-72,36,1311,410,258771
-10,-36,85,1328,381,258741
14,-40,51,1302,371,258881
12,-32,70,1329,376,258739
-26,12,151,1345,380,258781
-9,-27,45,1372,452,258837
3,6,128,1390,418,258779
22,4,73,1344,414,258782
46,15,50,1313,425,258728
36,16,-17,1371,442,258848
101,19,102,1386,316,258901
130,-4,-10,1225,350,258867
126,-17,-32,1261,404,258827
114,8,4,1312,452,258904
150,3,-42,1312,378,258803
143,25,-82,1296,377,258721
96,74,-80,1325,361,258732
86,110,-76,1285,358,258770
67,121,-49,1352,345,258803
35,142,-80,1385,394,258737
-24,179,-61,1223,408,258879
-43,197,6,1286,421,258902
-22,201,27,1272,393,258835
12,193,30,1289,380,258823
-18,201,60,1336,355,258869
31,176,96,1236,337,258844
47,167,42,1302,337,258799
53,149,25,1408,380,258810
43,166,36,1356,367,258832
29,158,34,1294,366,258894
30,141,-36,1281,358,258829
12,135,-53,1288,338,258846
-2,130,-31,1298,408,258845
-16,128,-17,1358,350,258868
-16,126,-85,1331,327,258918
-27,123,-24,1346,401,258828
-41,129,-18,1323,393,258870
-19,105,-37,1367,373,258830
-2,141,-47,1364,410,258782
-6,144,-12,1370,370,258822
32,125,6,1296,350,258879
20,126,-17,1288,452,258824
43,103,-58,1300,328,258747
52,110,-2,1298,324,258806
42,105,-24,1313,375,258777
29,69,9,1343,488,258705
24,94,48,1385,361,258707
12,83,21,1347,393,258807
-9,114,101,1347,368,258827
-22,94,40,1430,342,258827
-36,101,61,1309,400,258800
-54,92,94,1332,363,258865
-46,112,69,1325,431,258828
-51,88,20,1277,453,258756
-65,119,68,1313,396,258772
-57,114,54,1319,348,258811
-25,100,39,1371,335,258861
-142,126,79,1320,286,258769
-80,73,50,1274,393,258733
-106,57,72,1252,362,258813
-126,65,22,1324,329,258872
-123,12,95,1287,335,258832
-173,77,152,1318,360,258754
-173,17,2,1333,362,258881
-129,48,180,1339,326,258833
-244,40,119,1350,312,258862
-255,30,133,1283,358,258751
-224,23,156,1398,406,258867
-230,3,-46,1302,400,258779
-204,-12,162,1273,379,258749
-260,19,53,1275,387,258765
-174,-17,30,1293,346,258798
-81,-22,16,1309,343,258832
-129,-16,-43,1319,356,258865
-123,-15,51,1199,328,258779
-63,-32,-55,1385,375,258902
-47,-29,-15,1312,403,258810
-39,-3,-13,1323,405,258803
-44,-2,15,1268,428,258799
6,10,10,1327,351,258773
33,27,79,1298,376,258772
-5,11,22,1304,369,258980
0,42,53,1200,286,258916
-7,35,73,1260,378,258785
-1,16,91,1355,347,258854
11,12,117,1292,376,258764
66,0,44,1278,335,258754
95,12,114,1263,344,258833
143,-9,39,1284,457,258883
149,-11,97,1312,389,258815
130,-9,49,1331,385,258819
162,24,57,1316,328,258872
131,60,34,1351,370,258830
90,49,36,1265,391,258810
55,87,45,1296,370,258845
23,66,31,1235,405,258822
-19,95,27,1261,406,258766
-65,67,0,1266,391,258811
-94,46,-12,1267,382,258737
-136,34,-25,1313,413,258751
-129,49,-5,1380,359,258683
-105,19,-100,1303,368,258674
-81,33,-71,1311,344,258765
-38,2,-80,1325,366,258763
-6,57,-71,1353,301,258876
36,58,-129,1384,329,258870
43,91,-73,1412,412,258742
41,130,-118,1266,366,258741
62,153,-49,1333,352,258890
69,203,-28,1317,311,258926
20,224,-36,1317,349,258791
51,230,3,1306,394,258788
19,245,52,1222,365,258844
-47,249,88,1270,390,258919
-46,247,110,1284,340,258887
-32,235,126,1291,343,258856
-49,240,95,1285,317,258937
-18,236,82,1231,383,258842
5,245,77,1300,454,258844
24,250,8,1273,358,258748
20,238,9,1290,346,258808
43,229,23,1358,395,258812
78,193,-7,1338,372,258716
98,145,-46,1387,369,258804
98,157,-25,1330,347,258774
118,138,-31,1386,297,258885
115,128,-2,1340,274,258907
86,77,-47,1313,363,258860
53,58,-42,1303,336,258804
41,38,-50,1314,353,258835
-15,-1,-4,1325,394,258892
-51,-20,38,1321,370,258937
-52,-38,-30,1317,429,258828
-60,-33,3,1324,355,258821
-57,-49,-35,1345,383,258887
-51,-41,-41,1337,462,258895
-85,-33,5,1243,375,258863
-53,-32,34,1282,303,258868
-41,-54,24,1310,343,258788
-39,-75,53,1289,304,258748
-22,-82,78,1329,352,258819
-17,-57,103,1315,423,258770
-24,-57,115,1360,321,258876
-34,-42,128,1292,392,258888
-22,-27,111,1288,401,258813
-23,-24,46,1312,379,258861
-49,16,97,1332,411,258719
-78,21,38,1299,499,258773
-45,51,39,1319,473,258834
-46,35,-25,1322,426,258892
-62,68,9,1291,373,258749
-26,95,-34,1285,303,258858
-51,93,8,1362,375,258825
-69,117,59,1358,451,258815
-25,94,38,1335,394,258899
-30,100,84,1279,378,258875
-35,114,116,1261,433,258881
-25,102,137,1334,398,258780
-19,98,95,1335,442,258843
-25,82,113,1331,381,258835
-38,90,91,1347,369,258838
-31,99,97,1333,379,258801
-24,77,98,1312,306,258862
-20,109,97,1299,354,258878
1,104,49,1313,391,258755
19,125,81,1332,381,258703
46,112,50,1344,369,258833
59,123,28,1284,368,258817
70,127,59,1337,352,258912
71,112,11,1363,409,258812
77,124,50,1291,381,258822
71,123,-4,1341,394,258876
40,132,-1,1263,350,258815
25,127,-56,1287,346,258775
-15,132,-6,1328,365,258796
-43,113,-41,1265,423,258818
-67,121,-20,1356,361,258763
-79,104,-63,1322,403,258907
-69,131,-59,1311,382,258847
-50,136,-49,1321,425,258784
-26,167,-46,1307,411,258853
-26,186,-16,1360,362,258957
-16,175,-21,1352,354,258862
15,151,-3,1304,381,258790
7,110,-24,1356,404,258786
-36,137,-6,1332,376,258842
-24,119,-29,1347,410,258823
-103,143,9,1264,446,258833
-59,134,107,1245,363,258930
-28,29,-358,1224,397,258917
-196,96,159,1333,325,258817
-223,120,227,1320,407,258832
-128,22,-34,1343,399,258915
-180,57,-131,1346,266,258745
-182,135,296,1294,384,258888
-94,43,-140,1322,369,258915
-32,60,150,1275,327,258782
-76,90,84,1363,384,258786
-19,52,-10,1309,400,258821
40,-2,115,1357,392,258714
29,-26,91,1324,424,258906
52,-72,7,1273,380,258829
23,-12,46,1305,382,258803
56,29,94,1318,388,258759
41,-12,41,1322,426,258804
30,14,142,1293,383,258852
25,84,36,1286,413,258773
5,69,-3,1254,410,258770
-39,131,-17,1368,433,258839
-84,174,61,1376,409,258943
-57,163,-97,1384,422,259001
-39,204,-7,1317,419,258910
-46,208,-33,1338,424,258880
-54,209,-17,1343,378,258785
-52,140,28,1318,343,258794
-49,130,-37,1305,343,258980
-50,79,-55,1334,377,258853
-57,60,-49,1317,409,258792
-49,72,-70,1297,420,258883
-28,75,-46,1287,410,258811
-34,45,-33,1270,387,258838
-45,7,21,1290,351,258893
-50,-47,9,1301,337,258877
-90,-73,54,1272,361,258908
-104,-85,-60,1313,315,258814
-53,-124,49,1321,360,258854
-63,-81,189,1321,441,258741
-105,-105,106,1257,350,258795
-49,-99,-11,1310,371,258791
32,-98,339,1420,354,258789
-40,-111,-60,1306,425,258819
-67,-118,147,1365,350,258832
-109,-110,32,1284,357,258788
-46,-90,11,1436,400,258873
-30,-47,9,1328,405,258919
-92,-11,-8,1345,322,258938
-81,53,56,1234,361,258902
17,46,23,1340,415,258818
20,97,12,1253,303,258775
-4,119,-5,1298,319,258896
43,156,59,1179,360,258763
105,169,20,1304,402,258824
127,173,60,1331,364,258825
126,197,69,1330,296,258726
154,200,129,1298,411,258741
180,167,64,1324,431,258782
159,176,79,1301,364,258816
102,164,51,1282,424,258834
114,171,91,1287,392,258815
95,135,77,1295,441,258977
84,144,55,1332,365,258904
60,143,37,1243,389,258833
64,143,51,1294,395,258783
60,105,38,1334,417,258801
61,99,50,1389,307,258819
75,75,19,1271,389,258834
75,101,9,1256,343,258829
74,74,24,1281,324,258874
64,112,68,1374,323,258827
69,98,5,1351,363,258846
8,120,75,1341,381,258844
90,76,-191,1256,388,258912
-51,76,139,1307,483,258888
-34,141,-119,1300,397,258876
22,35,-105,1288,400,258854
-103,100,-198,1357,336,258794
-50,89,47,1267,400,258869
-3,21,-304,1351,366,258800
-31,94,-81,1440,344,258783
-62,113,-67,1337,473,258830
