Vx,Vy,Vz,Ax,Ay,Az
-59,109,-72,1118,4272,258841
-80,75,10,1099,4202,258747
-79,52,98,1169,4222,258747
-74,39,37,1144,4290,258852
-91,37,152,1136,4228,258864
-111,40,157,1124,4210,258854
-103,99,10,1111,4162,258814
-64,172,-3,1166,4185,258802
-101,181,-5,1043,4111,258703
-89,144,-35,1033,4169,258805
-66,105,56,1081,4197,258834
-113,61,110,1143,4242,258860
-130,52,84,1147,4256,258765
-124,23,97,1099,4235,258780
-93,29,68,1126,4216,258918
-79,104,16,1153,4133,258885
-84,167,-45,1150,4170,258703
-86,122,-17,1126,4227,258725
-73,46,102,1124,4287,258705
-94,21,83,1163,4158,258784
-85,-8,70,1093,4204,258796
-91,-29,92,1061,4147,258864
-60,-21,70,1093,4242,258861
-37,45,7,1134,4210,258839
-15,98,14,1098,4231,258870
-30,85,1,1079,4158,258794
8,38,42,1131,4114,258658
17,-17,135,1111,4204,258833
-13,-35,92,1145,4238,258830
6,15,62,1099,4237,258729
35,34,-6,1116,4200,258729
32,63,-66,1167,4215,258735
24,131,-70,1165,4268,258735
41,149,-147,1217,4262,258791
52,106,-94,1140,4196,258798
61,63,31,1157,4207,258734
56,61,-23,1137,4249,258785
62,88,-32,1153,4208,258843
69,117,-20,1149,4211,258824
86,136,-91,1117,4227,258836
116,173,-115,1165,4201,258739
62,163,-39,1144,4185,258769
110,85,-46,1101,4215,258841
87,69,65,1124,4144,258840
53,69,64,1106,4226,258789
47,108,0,1110,4263,258903
34,127,4,1078,4240,258807
59,143,-29,1066,4171,258789
44,165,-90,1049,4227,258771
34,158,-12,1132,4209,258889
31,60,29,1139,4199,258857
55,4,156,1170,4174,258827
-3,-12,160,1155,4172,258805
-21,2,105,1110,4232,258852
3,30,51,1166,4262,258802
-25,83,-21,1091,4263,258717
-20,141,-92,1108,4215,258757
-41,126,-24,1097,4223,258831
-46,58,10,1095,4192,258883
-63,8,72,1043,4237,258808
-122,-38,165,1081,4195,258813
-115,-59,144,1093,4193,258851
-100,1,102,1112,4181,258963
-108,76,49,1172,4255,258824
-105,93,-36,1134,4242,258803
-76,78,14,1131,4143,258897
-43,48,59,1155,4210,258799
-121,4,94,1199,4219,258793
-69,-74,123,1163,4263,258797
-81,-77,127,1182,4234,258778
-57,-57,29,1128,4242,258858
-61,9,-12,1120,4261,258862
-45,30,-27,1162,4227,258719
-10,36,-30,1151,4271,258763
-23,29,15,1047,4220,258837
-28,18,66,1123,4245,258882
-30,-22,84,1090,4264,258858
-37,-27,101,1144,4194,258808
-30,40,12,1122,4183,258811
-10,110,-87,1144,4225,258836
-25,133,-82,1078,4225,258765
-31,115,-103,1141,4132,258861
15,90,-92,1140,4191,258892
-25,86,30,1160,4152,258791
-39,58,50,1189,4142,258764
-12,70,75,1135,4157,258713
11,110,43,1073,4235,258782
-3,167,6,1105,4177,258722
-14,201,-13,1164,4243,258877
51,171,-7,1141,4229,258821
52,128,15,1171,4171,258737
-15,110,89,1158,4203,258813
3,63,116,1104,4233,258949
13,25,37,1120,4206,258777
35,43,89,1099,4207,258824
-4,82,-19,1147,4188,258856
35,158,-35,1140,4215,258846
55,122,-2,1201,4189,258777
45,30,62,1099,4210,258755
2,44,121,1096,4174,258875
-17,70,114,1124,4127,258961
5,44,52,1127,4162,258803
3,67,66,1174,4210,258818
-18,154,-88,1143,4183,258695
-16,203,-166,1068,4220,258726
1,147,-72,1098,4276,258752
12,70,23,1149,4225,258793
-24,63,52,1108,4227,258777
-50,66,67,1084,4197,258846
-46,69,76,1138,4230,258844
-52,82,30,1109,4167,258857
-69,105,-47,1126,4197,258855
-58,146,-73,1119,4195,258860
-31,144,-29,1117,4118,258836
-29,54,22,1097,4253,258852
-68,-16,106,1083,4184,258702
-108,-27,122,1087,4168,258837
-82,-8,116,1153,4267,258816
-63,-16,58,1104,4163,258814
-71,38,18,1075,4211,258859
-68,129,-17,1078,4213,258856
-47,108,-34,1041,4223,258808
-42,19,34,1044,4208,258802
-70,-20,121,1105,4095,258871
-70,-43,103,1080,4221,258815
-72,-14,72,1110,4249,258821
-85,44,48,1178,4258,258784
-58,100,-34,1122,4290,258833
-53,173,-142,1130,4258,258755
-17,200,-90,1104,4242,258724
24,139,-56,1163,4252,258837
12,62,-9,1129,4294,258780
34,13,54,1090,4246,258826
56,5,31,1072,4215,258754
77,14,-7,1108,4177,258748
69,58,-72,1194,4244,258765
106,107,-89,1154,4257,258693
100,136,-61,1110,4194,258714
117,116,-16,1166,4208,258800
77,49,50,1152,4230,258740
87,17,117,1071,4142,258771
98,57,87,1122,4131,258851
79,110,45,1108,4190,258713
67,141,-31,1039,4197,258783
44,156,-16,1070,4218,258886
73,166,-5,1105,4209,258849
66,151,4,1161,4152,258832
14,96,70,1100,4189,258897
-4,50,117,1070,4274,258840
18,29,92,1098,4270,258824
-22,44,28,1075,4293,258824
-57,98,49,1070,4229,258863
-64,127,3,1203,4253,258904
-35,124,48,1165,4195,258852
-89,121,161,1136,4175,258870
-84,102,176,1031,4221,258832
-81,34,203,1098,4255,258842
-110,13,234,1098,4203,258827
-114,71,131,1121,4163,258849
-133,118,40,1111,4170,258818
-156,96,9,1108,4211,258887
-106,50,32,1084,4263,258805
-128,74,34,1061,4206,258818
-147,38,73,1060,4216,258808
-137,-24,135,1137,4166,258796
-150,-22,97,1254,4112,258766
-135,54,54,1200,4207,258875
-154,109,-53,1068,4172,258755
-143,113,-92,1077,4197,258721
-110,88,-36,1121,4184,258786
-96,50,19,1085,4218,258746
-129,43,51,1045,4223,258792
-98,48,81,1114,4179,258791
-107,26,18,1114,4202,258847
-126,62,-29,1113,4273,258706
-143,144,-47,1129,4190,258713
-129,185,-176,1119,4213,258791
-94,157,-151,1164,4244,258760
-108,119,-49,1116,4148,258864
-91,72,15,1121,4195,258880
-76,85,55,1080,4183,258855
-78,81,70,1087,4250,258790
-63,87,54,1055,4184,258850
-56,109,25,1048,4136,258824
-45,169,-28,983,4183,258820
-34,148,-60,1015,4171,258886
18,78,101,1143,4170,258819
2,43,137,1142,4086,258756
7,67,130,1041,4212,258772
-15,68,143,1097,4223,258757
1,54,129,1104,4222,258867
49,98,68,1147,4242,258851
49,166,30,1169,4218,258809
48,177,48,1182,4231,258765
86,110,89,1141,4214,258806
92,43,134,1160,4233,258799
38,72,156,1065,4240,258693
81,88,96,1073,4210,258806
69,72,4,1111,4282,258811
79,100,39,1145,4221,258749
95,163,-28,1152,4155,258801
108,155,-111,1182,4223,258796
69,108,25,1173,4132,258803
85,22,124,1138,4203,258801
83,6,47,1145,4270,258782
50,57,23,1101,4214,258946
43,71,-50,1095,4242,258815
43,65,-127,1113,4279,258813
71,118,-154,1150,4226,258836
40,128,-190,1139,4263,258907
40,54,-159,1124,4194,258772
47,-4,-8,1171,4182,258791
82,3,-18,1113,4159,258787
10,49,-2,1205,4257,258841
-9,84,-47,1138,4240,258785
20,123,-92,1186,4185,258819
14,154,-141,1183,4189,258795
-27,153,-87,1168,4214,258765
-19,93,-60,1152,4211,258793
-40,5,111,1100,4225,258803
-24,-53,222,1107,4231,258865
-49,-23,123,1124,4173,258842
-78,17,50,1095,4209,258847
-24,41,84,1125,4147,258804
-50,61,70,1167,4190,258695
-31,63,-28,1129,4228,258916
-36,54,105,1154,4263,258866
-20,20,213,1127,4238,258802
14,11,172,1067,4206,258748
9,31,137,1079,4192,258802
-23,56,107,1066,4202,258843
-13,93,77,1130,4222,258814
17,122,-38,1128,4251,258806
-4,146,-38,1183,4222,258791
-14,101,10,1176,4302,258785
-21,49,24,1124,4221,258777
18,-3,35,1155,4194,258808
-8,-1,3,1137,4132,258770
-21,23,-67,1048,4095,258725
24,47,-49,1091,4196,258741
14,97,-94,1129,4182,258865
33,116,-129,1128,4230,258824
41,107,-23,1140,4261,258691
51,66,41,1189,4175,258639
50,79,-18,1177,4175,258649
40,88,33,1141,4186,258709
20,63,38,1098,4256,258739
1,89,-88,1086,4115,258856
1,136,-69,1089,4212,258758
-36,91,-60,1146,4172,258765
-43,31,-50,1177,4196,258924
-36,50,38,1148,4172,258807
-39,28,22,1130,4185,258848
-43,30,-2,1118,4274,258871
-27,63,2,1106,4242,258876
-16,88,-60,1059,4141,258812
9,130,-75,1121,4204,258732
-32,128,-24,1139,4204,258773
-14,65,68,1029,4168,258845
-23,26,163,991,4168,258811
-17,30,156,1124,4243,258816
-56,15,139,1115,4204,258819
-101,-20,108,1113,4234,258808
-53,11,86,1064,4218,258808
-99,83,24,1114,4184,258752
-93,44,-11,1072,4196,258765
-82,-41,129,1125,4237,258835
-49,-73,248,1125,4154,258856
-62,-46,157,1096,4190,258817
-52,-26,136,1108,4235,258886
-74,-24,141,1116,4294,258830
-36,30,28,1080,4230,258790
-17,121,4,1048,4189,258793
-83,137,-22,1095,4200,258827
-50,48,47,1131,4197,258904
-12,2,187,1178,4191,258860
-34,-4,50,1168,4214,258853
-51,-7,11,1146,4249,258825
-92,-23,61,1187,4196,258924
-67,5,-63,1122,4221,258716
-87,72,-164,1105,4211,258810
-126,67,-89,1104,4249,258874
-104,-37,-33,1166,4272,258876
-93,-69,25,1116,4256,258880
-107,-54,64,1082,4221,258763
-114,-42,38,1078,4252,258841
-138,-3,33,1122,4175,258740
-103,50,9,1082,4210,258784
-106,110,-67,1095,4223,258835
-144,145,-5,1129,4164,258853
-92,101,4,1068,4213,258877
-57,40,80,1019,4225,258882
-68,60,137,1019,4270,258839
-81,73,107,1138,4206,258732
-74,59,48,1154,4192,258854
-44,61,90,1154,4203,258849
-69,121,-2,1119,4161,258831
-85,160,-67,1150,4241,258928
-81,137,88,1111,4229,258863
-26,69,130,1118,4216,258888
-44,87,110,1119,4139,258933
-52,148,168,1083,4259,258842
-55,159,57,1105,4334,258793
-34,150,72,1112,4275,258793
-32,176,16,1179,4197,258688
-36,169,8,1092,4203,258802
-38,149,115,1054,4235,258879
-10,121,170,1052,4161,258832
-1,96,147,1117,4152,258842
-19,144,149,1119,4187,258819
-9,142,91,1089,4224,258749
23,127,-58,1107,4232,258811
20,147,-42,1121,4234,258761
-4,126,-86,1081,4246,258776
25,84,-14,1235,4294,258628
35,15,52,1164,4223,258746
19,-5,2,1149,4196,258753
18,10,68,1132,4320,258760
34,1,-29,1071,4278,258748
49,38,-169,1122,4240,258812
43,63,-162,1158,4240,258780
4,56,-114,1007,4231,258851
49,26,-98,1101,4186,258892
32,-4,-3,1140,4214,258878
24,-24,-5,1083,4237,258879
72,-22,32,1109,4197,258763
37,49,39,1113,4196,258777
75,69,-120,1116,4217,258821
24,90,-126,1120,4269,258838
25,89,-44,1035,4238,258865
84,50,-61,1057,4227,258743
45,31,65,1081,4137,258861
68,22,112,1121,4151,258936
53,5,77,1077,4194,258857
78,31,49,1095,4163,258843
52,97,-16,1085,4159,258881
71,130,-104,1119,4167,258829
29,96,-50,1103,4195,258805
70,36,56,1177,4224,258744
64,32,57,1118,4208,258736
22,41,107,1157,4222,258818
50,34,130,1134,4258,258787
51,39,94,1117,4201,258875
49,104,46,1088,4144,258866
27,152,-42,1108,4243,258862
9,106,-37,1039,4225,258902
27,54,57,1117,4191,258777
-22,67,106,1077,4153,258815
3,109,47,1113,4203,258769
-6,114,96,1155,4257,258705
24,92,103,1052,4248,258819
21,162,31,1079,4171,258824
-1,236,-62,1128,4212,258894
-7,197,-50,1057,4211,258895
-26,141,63,1085,4242,258800
-7,122,70,1133,4199,258786
-34,146,44,1158,4136,258848
-21,130,106,1069,4201,258961
24,110,43,1150,4242,258885
4,179,-65,1115,4258,258796
-20,217,-120,1027,4251,258884
-53,180,-110,1178,4170,258889
-16,106,-27,1037,4227,258777
-53,89,-5,1090,4186,258747
-88,100,4,1124,4244,258701
-76,108,60,1094,4209,258721
-53,94,28,1114,4225,258846
-35,99,-78,1124,4214,258819
-64,100,-71,1134,4190,258838
-91,68,-81,1024,4222,258837
-48,30,-12,1102,4226,258781
-53,-34,46,1212,4200,258805
-100,-21,131,1108,4164,258804
-108,59,107,1130,4220,258761
-82,50,15,1108,4164,258859
-57,48,2,1093,4169,258873
-77,87,14,1151,4159,258798
-88,94,-80,1122,4179,258787
-86,44,21,1120,4213,258828
-95,-2,181,1124,4205,258774
-89,-7,81,1105,4222,258788
-59,64,78,1109,4249,258796
-87,126,91,1170,4255,258833
-82,136,-45,1140,4158,258739
-76,141,-20,1132,4229,258764
-100,115,-16,1084,4275,258794
-94,55,24,1065,4213,258783
-136,12,161,1101,4144,258863
-109,-4,164,1141,4134,258809
-114,42,148,1082,4152,258783
-97,92,150,1089,4219,258798
-68,92,54,1137,4271,258805
-77,105,10,1131,4227,258833
-72,100,66,1045,4211,258826
-63,38,66,1203,4197,258774
-61,23,150,1102,4223,258848
-61,13,172,1060,4260,258811
-36,11,171,1058,4248,258737
-19,56,197,1097,4193,258795
-40,150,21,1121,4276,258798
-37,191,-8,1109,4170,258854
-40,152,63,1101,4167,258896
-28,110,13,1120,4171,258769
-65,150,69,1098,4152,258783
-53,123,106,1090,4173,258752
-38,84,117,1147,4220,258836
-16,140,105,1104,4199,258852
-57,221,-55,1087,4180,258695
-32,211,-41,1128,4252,258822
-27,150,5,1161,4237,258845
-34,140,33,1097,4180,258780
-40,156,16,1060,4194,258764
-53,115,94,1127,4233,258833
9,94,47,1098,4205,258813
11,137,-11,1112,4226,258776
-11,177,-104,1140,4179,258774
23,160,-134,1151,4260,258803
46,108,-66,1117,4246,258756
38,48,-39,1130,4233,258824
19,49,26,1112,4203,258752
20,24,73,1103,4231,258860
36,13,55,1082,4224,258720
38,22,8,1105,4198,258775
39,56,-88,1188,4183,258747
23,78,-152,1142,4147,258754
55,16,-176,1126,4232,258847
8,-49,-63,1207,4196,258761
16,-46,8,1080,4175,258787
18,-20,-23,1071,4183,258811
25,-10,45,1108,4183,258789
32,-11,65,1171,4260,258878
39,33,-47,1119,4194,258796
29,56,-87,1142,4241,258775
-1,-5,-27,1139,4305,258816
29,-53,9,1126,4192,258816
-4,-49,94,1195,4194,258855
-36,-60,50,1199,4251,258751
1,-49,123,1069,4185,258827
-32,-9,111,1091,4245,258879
19,30,-28,1091,4242,258884
-15,68,-11,1181,4162,258868
-10,47,48,1163,4216,258830
0,7,6,1080,4207,258795
-9,0,116,1086,4131,258824
-23,43,159,1175,4252,258905
18,64,129,1185,4245,258838
20,110,149,1185,4201,258746
37,128,64,1110,4249,258750
32,129,-14,1164,4206,258798
27,86,-8,1119,4164,258842
19,66,22,1086,4239,258837
22,38,70,1214,4227,258669
1,39,70,1091,4272,258686
17,71,79,1148,4230,258783
3,124,58,1141,4182,258802
37,134,-43,1098,4230,258881
56,129,-89,1166,4208,258818
35,130,-103,1056,4249,258786
57,98,-135,1069,4152,258654
38,46,-79,1156,4162,258787
24,37,-14,1134,4189,258864
25,92,-45,1093,4213,258864
31,135,-93,1094,4270,258797
53,140,-89,1119,4291,258792
66,152,-123,1081,4310,258818
71,130,-134,1179,4200,258763
42,75,-70,1208,4245,258766
51,32,22,1088,4251,258736
26,7,40,1069,4141,258772
23,27,35,1054,4206,258813
6,65,24,1066,4209,258724
34,78,-21,1124,4202,258709
48,42,-61,1101,4196,258839
12,30,-56,1097,4152,258820
-7,3,-10,1140,4254,258766
-15,-46,14,1166,4247,258749
-37,-71,81,1181,4210,258780
-66,-26,125,1130,4184,258704
-75,52,49,1095,4236,258731
-48,86,36,1100,4217,258754
-44,81,53,1070,4205,258832
-63,48,14,1064,4162,258766
-52,22,26,1093,4193,258780
-64,-33,128,1090,4153,258862
-51,-93,144,1127,4218,258843
-37,-56,167,1084,4195,258777
-69,24,148,1154,4223,258774
-34,41,68,1189,4217,258823
-8,13,66,1147,4237,258937
-44,-14,110,1177,4173,258806
-58,-21,52,1132,4268,258790
-63,-46,198,1159,4213,258876
-86,-92,233,1188,4141,258808
-97,-34,224,1210,4197,258820
-103,39,153,1138,4236,258787
-128,61,98,1139,4296,258798
-96,83,66,1131,4254,258819
-109,86,3,1166,4279,258727
-117,65,-33,1080,4259,258716
-121,27,117,1109,4233,258838
-111,17,86,1125,4177,258797
-145,70,41,1138,4174,258741
-171,107,63,1101,4180,258857
-142,130,-38,1137,4195,258830
-112,157,-54,1167,4277,258874
-153,149,-117,1109,4227,258965
-150,136,-108,1104,4184,258870
-156,117,-8,1111,4182,258851
-158,126,12,1152,4220,258790
-158,148,9,1158,4197,258832
-146,162,37,1164,4284,258845
-116,166,-17,1185,4213,258833
-89,155,5,1200,4206,258837
-82,137,14,1113,4329,258788
-83,76,-26,1102,4265,258810
-98,75,63,1058,4282,258780
-57,93,96,1114,4282,258825
-39,99,30,1189,4249,258909
-35,129,37,1167,4236,258823
2,169,12,1134,4264,258728
32,183,-66,1142,4139,258827
47,150,-28,1091,4224,258797
27,83,15,1077,4192,258812
35,29,43,1108,4178,258888
38,52,116,1083,4193,258848
38,102,41,1060,4249,258717
3,126,35,1113,4257,258761
43,107,8,1062,4224,258788
83,114,11,1091,4227,258761
88,88,-66,1069,4178,258800
71,13,16,1136,4208,258748
79,-76,113,1081,4192,258797
46,-34,130,1051,4190,258733
47,32,97,1019,4175,258820
21,57,122,1099,4183,258783
53,76,67,1113,4225,258804
85,117,55,1104,4258,258822
44,130,-9,1074,4211,258769
51,66,12,1116,4160,258949
45,-8,123,1135,4207,258859
-31,-18,114,1120,4149,258790
-58,47,81,1091,4254,258884
-82,85,30,1163,4252,258885
-48,78,-6,1185,4244,258789
-45,123,-63,1154,4295,258830
-65,148,-108,1056,4187,258784
-54,93,-72,1113,4219,258787
-37,16,52,1124,4204,258811
-29,17,54,1104,4185,258858
-47,81,32,1097,4220,258915
-57,130,34,1082,4236,258760
-35,118,11,1173,4240,258696
-12,146,-30,1177,4179,258701
-37,177,-54,1124,4289,258829
-55,144,0,1111,4243,258826
-43,87,40,1121,4226,258818
-51,71,67,1194,4137,258774
-83,129,119,1113,4148,258801
-66,175,89,1108,4211,258824
-21,181,-28,1170,4187,258744
1,200,38,1136,4200,258820
-9,201,1,1072,4239,258903
29,162,-55,1100,4246,258763
12,72,-18,1157,4236,258781
1,23,82,1127,4246,258811
15,54,35,1111,4185,258840
-9,81,0,1079,4236,258826
-7,94,-45,1078,4184,258868
7,92,-43,1038,4173,258765
9,84,-38,1075,4221,258871
-37,54,-50,1118,4219,258850
-25,44,33,1109,4214,258832
-28,38,75,1099,4250,258859
-34,49,52,1134,4099,259001
-21,98,41,1172,4157,258836
25,116,9,1195,4221,258815
37,111,-15,1165,4212,258855
58,95,-16,1150,4233,258751
3,60,2,1137,4195,258849
43,52,43,1120,4249,258765
-11,55,21,1130,4138,258686
-37,55,38,1152,4280,258801
-39,98,25,1122,4208,258834
-24,119,-25,1079,4216,258844
-30,133,-51,1142,4269,258801
-43,76,-42,1134,4214,258902
-30,13,7,1112,4204,258875
-50,-17,33,1069,4190,258804
-30,-1,23,1132,4127,258845
-43,61,63,1132,4218,258887
-39,89,12,1102,4239,258905
-41,111,-18,1115,4219,258855
2,173,10,1105,4228,258877
-3,137,11,1133,4285,258942
3,47,32,1138,4259,258930
-21,-3,194,1113,4209,258807
-30,15,148,1174,4181,258694
-47,58,111,1124,4188,258711
-73,48,174,1096,4192,258646
-32,79,124,1168,4146,258782
-24,143,14,1126,4216,258732
-32,145,46,1099,4238,258794
8,20,56,1096,4186,258881
39,-18,115,1136,4165,258833
-24,34,87,1148,4232,258783
-31,56,99,1109,4183,258848
-18,63,64,1093,4244,258753
-13,112,82,1171,4226,258803
-18,182,-35,1222,4191,258830
-54,182,-47,1194,4298,258856
-24,131,-50,1166,4286,258849
-30,83,1,1135,4189,258807
-62,84,19,1028,4157,258840
-59,132,-21,1136,4292,258730
-53,150,-50,1122,4243,258831
-33,119,-15,1089,4267,258836
-24,159,-67,1118,4225,258850
-22,160,-91,1075,4203,258907
-8,106,-56,1147,4180,258891
5,19,66,1070,4167,258866
0,46,15,1137,4232,258793
-23,106,47,1130,4223,258798
-19,102,56,1088,4240,258775
-2,135,26,1181,4209,258780
-5,172,-18,1102,4214,258738
-2,139,1,1019,4200,258793
10,56,72,1100,4203,258864
-15,12,32,1175,4216,258877
-18,-11,27,1170,4214,258718
-33,-23,70,1124,4253,258882
-45,21,28,1145,4233,258879
-9,46,-12,1151,4235,258840
-3,50,-33,1187,4216,258870
-6,44,7,1144,4247,258883
29,22,48,1150,4240,258869
53,-38,83,1126,4167,258864
26,-91,58,1102,4169,258859
-3,-76,140,1094,4171,258728
-17,-27,91,1057,4284,258772
-8,-16,14,1122,4231,258826
-48,4,70,1161,4245,258755
-11,3,84,1093,4244,258751
-7,10,32,1084,4188,258845
3,-29,80,1060,4142,258747
-45,-49,95,1124,4143,258767
-27,-17,39,1141,4154,258792
0,44,79,1131,4206,258829
-22,67,-26,1082,4224,258817
-4,104,-51,1136,4274,258769
-59,105,-54,1050,4236,258853
-13,74,4,1158,4212,258822
-25,38,9,1139,4191,258802
-39,23,-5,1076,4195,258835
-21,20,9,1143,4242,258833
-36,54,18,1116,4254,258757
-57,101,-77,1141,4262,258757
-45,127,-118,1129,4247,258920
-2,92,-58,1105,4247,258839
12,28,-99,1135,4251,258787
3,28,-28,1141,4153,258825
15,14,31,1018,4206,258904
8,27,-5,1071,4205,258751
48,110,59,1057,4219,258812
62,183,23,1122,4232,258814
97,187,-53,1108,4221,258781
97,156,-16,1048,4220,258720
141,103,32,1078,4280,258769
131,80,30,1090,4248,258847
109,105,18,1201,4229,258804
80,81,25,1125,4163,258863
90,91,65,1171,4134,258883
70,111,-23,1189,4190,258834
63,126,-95,1144,4200,258809
97,64,-31,1152,4201,258785
81,22,19,1154,4241,258873
84,24,23,1112,4220,258841
35,-2,52,1106,4234,258778
36,-17,102,1099,4140,258728
10,28,36,1126,4231,258754
6,110,18,1126,4193,258704
-37,142,-6,1125,4274,258725
-37,105,-39,1099,4241,258737
-32,62,0,1070,4175,258771
-37,39,43,1127,4155,258806
-19,58,95,1110,4209,258790
-53,68,64,1059,4185,258856
-46,70,133,1083,4226,258874
-66,93,46,1117,4213,258781
-54,148,11,1154,4215,258778
-40,113,-63,1121,4184,258770
-24,44,73,1117,4183,258783
-41,39,121,1099,4198,258864
-56,67,31,1103,4183,258825
-76,42,83,1102,4253,258859
-68,15,63,1081,4212,258852
-64,32,-61,1155,4168,258826
-58,36,-86,1084,4138,258758
-68,-12,-31,1097,4175,258848
-69,-73,-3,1129,4191,258869
-56,-60,57,1122,4162,258868
-84,-50,51,1158,4197,258737
-82,3,44,1161,4228,258814
-90,51,89,1213,4200,258746
-96,82,-28,1139,4231,258751
-116,150,10,1101,4231,258765
-140,150,44,1081,4201,258873
-93,107,0,1118,4220,258827
-150,103,93,1136,4159,258818
-152,72,102,1144,4214,258794
-137,77,123,1125,4225,258778
-144,98,170,1213,4161,258923
-179,105,32,1236,4263,258851
-157,104,15,1182,4219,258836
-148,87,26,1118,4162,258873
-164,60,-18,1175,4239,258770
-144,46,62,1090,4213,258756
-152,59,167,1123,4206,258771
-112,72,113,1019,4198,258707
-148,124,154,1098,4235,258715
-149,143,173,1163,4223,258766
-154,121,62,1167,4206,258697
-144,101,86,1155,4150,258702
-139,35,114,1188,4214,258764
-148,-3,131,1123,4224,258779
-110,-18,110,1101,4231,258779
-136,15,142,1132,4250,258754
-128,84,83,1156,4209,258852
-89,91,3,1147,4222,258855
-79,88,-37,1161,4176,258918
-34,52,28,1167,4241,258872
-41,50,37,1200,4241,258842
29,40,16,1118,4238,258768
57,32,65,1088,4176,258789
70,39,86,1115,4159,258800
75,89,-31,1136,4146,258891
68,139,-9,1138,4204,258849
67,141,-97,1157,4228,258733
53,85,-58,1112,4209,258807
61,40,21,1149,4098,258784
32,27,23,1135,4189,258879
47,-6,-16,1107,4205,258814
27,-48,99,1105,4145,258871
-7,-17,14,1109,4218,258840
-16,99,-61,1094,4221,258880
-33,124,-58,1134,4205,258828
9,56,-9,1101,4261,258766
7,54,16,1173,4240,258842
-19,78,70,1117,4238,258815
2,62,57,1165,4188,258823
-2,48,160,1172,4225,258833
-36,103,91,1154,4162,258903
-59,130,13,1177,4209,258809
-30,102,40,1142,4244,258839
-46,78,51,1075,4249,258899
-53,55,21,1121,4230,258812
-58,70,127,1144,4244,258775
-36,76,107,1108,4276,258786
-1,76,98,1094,4200,258781
-62,114,93,1109,4195,258813
-15,144,4,1146,4255,258795
33,206,-75,1212,4275,258921
21,183,-56,1128,4223,258876
36,120,11,1112,4224,258810
56,108,48,1089,4184,258895
74,116,5,1096,4193,258822
38,100,44,1103,4213,258821
42,79,3,1122,4204,258841
32,103,-97,1186,4204,258779
-7,144,-146,1101,4256,258822
-10,76,-146,1116,4243,258905
3,30,-109,1080,4220,258849
15,11,-58,1133,4205,258935
46,34,-27,1132,4182,258834
40,61,-27,1090,4215,258829
15,73,-5,1090,4207,258889
36,97,-27,1097,4280,258954
58,134,-36,1061,4172,258841
31,149,-61,1166,4190,258827
32,108,1,1171,4185,258831
21,60,44,1217,4240,258792
67,84,75,1176,4214,258757
14,122,48,1116,4211,258810
3,147,39,1134,4269,258880
-3,123,4,1123,4172,258811
-3,108,28,1164,4173,258821
-14,123,11,1116,4196,258902
-18,94,52,1133,4255,258919
-22,53,108,1137,4252,258841
13,30,163,1081,4257,258880
0,82,102,1074,4233,258883
-13,116,93,1098,4215,258827
3,96,14,1095,4187,258809
28,47,28,1093,4215,258744
-5,61,19,1051,4126,258849
-14,49,8,1029,4198,258840
19,-19,36,1065,4226,258845
42,-54,83,1104,4242,258770
28,16,77,1105,4210,258737
-13,59,-58,1106,4170,258727
33,45,-69,1129,4216,258830
65,45,-14,1172,4178,258803
36,40,-87,1090,4184,258865
10,14,-70,1096,4245,258782
44,-17,31,1175,4160,258850
51,-24,20,1172,4173,258860
24,20,19,1075,4264,258845
6,114,-27,1134,4255,258832
-3,167,-48,1186,4136,258720
21,153,-118,1080,4218,258825
-16,146,-50,1143,4161,258792
-46,127,-35,1113,4213,258851
-49,107,-13,1074,4253,258839
-41,61,50,1171,4202,258866
-62,89,90,1169,4225,258710
-98,144,-10,1117,4272,258715
-96,164,-65,1093,4318,258782
-111,153,6,1155,4204,258788
-78,106,-75,1188,4166,258719
-124,86,8,1092,4262,258872
-92,54,76,1145,4139,258835
-64,33,85,1177,4136,258850
-85,46,110,1157,4190,258873
-105,60,72,1064,4249,258887
-74,92,51,1114,4238,258793
-51,84,12,1098,4232,258770
-104,21,-15,1048,4214,258729
-90,-23,32,1055,4164,258848
-48,-12,117,1143,4207,258786
-29,-43,85,1142,4142,258822
-47,-14,158,1078,4257,258737
-31,24,142,1092,4226,258795
9,84,71,1068,4225,258770
-28,134,29,1172,4222,258849
-16,137,51,1159,4218,258808
-2,100,63,1133,4267,258757
-12,114,139,1137,4208,258842
16,120,94,1141,4201,258824
-10,108,86,1143,4266,258803
-11,99,86,1164,4263,258776
7,139,19,1151,4201,258776
-9,170,-20,1174,4243,258812
-35,125,-45,1098,4234,258839
-16,39,-29,1051,4242,258791
8,3,105,1110,4185,258963
-10,0,44,1106,4193,258904
8,29,4,1141,4158,258797
14,20,59,1081,4175,258828
32,0,25,1103,4211,258821
34,48,-43,1156,4227,258733
8,26,-13,1114,4176,258693
26,-31,40,1163,4207,258819
60,-31,88,1135,4233,258920
54,27,35,1142,4165,258824
51,64,40,1106,4245,258841
31,51,93,1147,4306,258791
56,58,-6,1012,4260,258853
41,99,-62,1059,4265,258805
7,53,-54,1135,4216,258791
-24,-2,-15,1080,4170,258744
60,-14,-48,1109,4202,258757
32,37,4,1128,4271,258859
8,57,23,1104,4260,258811
24,119,-20,1143,4165,258693
43,164,-48,1129,4128,258663
21,185,-94,1205,4220,258834
-23,161,-78,1152,4179,258826
4,121,-55,1148,4214,258886
-8,75,-16,1203,4199,258845
-3,103,37,1149,4175,258804
10,144,107,1176,4206,258814
-14,161,-9,1144,4217,258810
-8,187,16,1127,4207,258890
13,169,-9,1114,4165,258833
5,110,-65,1121,4182,258784
-8,62,-10,1129,4208,258782
3,-16,70,1173,4148,258737
-8,-49,49,1059,4218,258810
-55,21,107,1141,4204,258752
-41,48,67,1176,4216,258834
-51,74,14,1149,4252,258892
-57,101,54,1080,4261,258836
-73,89,-19,1150,4201,258900
-62,45,-1,1143,4240,258765
-81,41,104,1161,4195,258810
-114,52,46,1136,4200,258823
-81,95,92,1121,4231,258799
-135,124,104,1123,4247,258753
-100,139,45,1159,4197,258753
-80,133,8,1146,4212,258850
-90,56,-35,1131,4201,258824
-80,8,13,1115,4139,258876
-54,2,76,1111,4257,258807
-23,1,-21,1147,4248,258800
-6,45,132,1164,4240,258770
-21,78,127,1137,4207,258772
13,96,37,1109,4208,258794
-2,85,96,1054,4228,258838
-12,19,84,1093,4226,258933
42,-33,4,1098,4131,258788
17,-56,73,1128,4203,258779
28,-62,52,1070,4217,258823
29,-19,31,1119,4208,258794
11,62,47,1153,4237,258859
42,79,-23,1134,4251,258858
-16,75,-46,1138,4279,258788
-16,52,-4,1086,4187,258892
16,12,-81,1085,4141,258824
-45,-4,8,1132,4203,258817
-39,11,56,1198,4270,258795
-29,60,27,1128,4223,258837
-46,108,62,1144,4181,258805
-48,128,14,1167,4192,258852
-76,131,-55,1201,4186,258655
-63,125,26,1168,4164,258721
-85,61,6,1124,4199,258815
-101,42,39,1146,4205,258829
-91,67,116,1032,4162,258771
-85,72,78,1050,4228,258837
-76,107,58,1123,4192,258860
-83,173,71,1150,4112,258830
-146,194,-49,1089,4117,258777
-121,160,-5,1061,4249,258773
-94,86,31,1095,4202,258918
-63,51,87,1058,4232,258763
-62,107,96,1092,4298,258851
-91,115,113,1171,4317,258886
-90,97,99,1026,4280,258816
-57,133,115,1085,4237,258798
-108,166,10,1154,4245,258867
-104,119,-18,1144,4285,258860
-96,41,112,1097,4190,258805
-121,-20,77,1173,4128,258760
-95,24,75,1140,4119,258755
-91,37,101,1169,4256,258733
-51,23,96,1153,4246,258764
-61,52,105,1169,4218,258791
-96,102,87,1068,4180,258804
-89,90,56,1049,4169,258767
-34,15,84,1080,4226,258778
-62,2,92,1110,4142,258882
-66,88,19,1180,4173,258845
-47,143,81,1094,4239,258855
-51,150,82,1139,4254,258901
-43,140,39,1071,4220,258923
-103,176,52,1103,4202,258768
-77,127,-32,1137,4242,258739
-80,22,-35,1201,4229,258813
-80,-24,36,1161,4237,258874
-77,-12,-16,1136,4160,258974
-46,43,3,1030,4168,258955
-59,46,26,1130,4186,258828
-27,26,31,1067,4158,258913
-41,30,-42,1141,4165,258798
-53,9,-49,1133,4271,258866
-10,-41,-25,1105,4245,258869
-21,-76,23,1099,4224,258867
-14,-24,32,1192,4186,258919
20,34,64,1126,4198,258871
17,83,72,1138,4207,258923
20,91,26,1144,4211,258818
48,93,24,1147,4262,258830
59,44,5,1158,4250,258816
47,7,-22,1087,4215,258724
66,-20,61,1066,4157,258726
70,-9,20,1127,4217,258831
58,66,44,1090,4205,258897
71,167,30,1184,4189,258810
62,190,-12,1121,4268,258877
83,134,-49,1151,4244,258825
64,132,3,1180,4257,258736
62,91,-42,1215,4200,258696
51,63,6,1093,4225,258691
21,61,80,1070,4241,258891
39,133,29,1086,4258,258861
3,218,-6,1073,4196,258895
-47,226,2,1022,4198,258820
-34,191,1,1044,4258,258818
-35,145,1,1085,4248,258666
-56,103,15,1026,4183,258689
-64,65,-29,1064,4193,258810
-36,46,57,1175,4200,258694
-38,53,52,1183,4193,258887
-38,102,5,1171,4225,258877
-42,162,34,1085,4256,258834
-54,152,9,1164,4221,258818
-13,85,-62,1126,4167,258872
-34,28,-7,1096,4231,258815
-32,-15,-36,1024,4134,258880
-31,16,1,1125,4198,258779
-16,15,56,1151,4235,258859
-35,31,51,1073,4139,258842
-25,92,44,1119,4183,258754
-33,89,-1,1136,4197,258805
-14,2,-30,1142,4198,258829
-11,-45,45,1111,4215,258775
-65,-22,-12,1140,4201,258764
-6,8,-29,1065,4218,258763
-3,26,146,1065,4236,258744
-14,46,46,1129,4162,258720
-17,128,10,1122,4214,258806
-5,147,95,1136,4241,258879
-3,33,-16,1079,4181,258779
3,-9,43,1119,4160,258860
-8,10,52,1098,4164,258883
-19,38,-9,1150,4224,258810
25,65,28,1174,4204,258797
-10,86,57,1180,4137,258853
19,109,-18,1150,4150,258851
35,112,-23,1170,4185,258722
23,38,16,1087,4208,258815
57,-25,-14,1096,4180,258793
30,-11,3,1176,4203,258853
35,46,-41,1148,4199,258869
69,106,18,1119,4278,258834
-3,127,10,1103,4201,258779
47,165,8,1107,4209,258769
33,163,-14,1150,4250,258759
34,124,4,1077,4288,258756
39,47,0,1129,4229,258718
55,9,-9,1107,4206,258841
51,77,18,1078,4205,258917
46,123,27,1147,4225,258818
50,158,21,1134,4249,258840
44,189,27,1037,4193,258887
57,193,13,1091,4232,258882
78,142,21,1169,4229,258806
69,49,86,1122,4156,258750
62,46,52,1093,4179,258869
82,57,47,1132,4188,258860
57,101,59,1153,4218,258965
52,194,110,1058,4242,258851
15,185,-3,1173,4168,258947
7,157,-9,1099,4257,258759
19,108,8,1103,4277,258672
23,27,-52,1047,4262,258807
-56,-13,-31,1078,4190,258837
-2,-9,-18,1054,4182,258775
-39,54,-3,1142,4210,258785
-47,94,-12,1121,4287,258803
-74,110,10,1151,4256,258775
-41,93,-35,1182,4244,258741
-56,49,27,1163,4236,258795
-88,31,-29,1064,4232,258815
-70,-4,-62,1077,4227,258726
-74,-4,-7,1064,4193,258812
-73,35,33,1136,4204,258863
-89,108,12,1151,4240,258793
-117,121,-23,1179,4236,258818
-74,57,46,1194,4210,258880
-61,28,40,1117,4159,258827
-54,-18,-7,1173,4203,258805
-56,-55,72,1104,4243,258760
-8,-56,56,1108,4292,258850
-13,-4,76,1123,4232,258818
-55,71,53,1142,4247,258711
-8,64,52,1165,4217,258746
14,60,109,1075,4239,258762
22,26,71,1114,4178,258734
23,-31,83,1175,4253,258851
49,-48,96,1200,4250,258855
31,-42,32,1098,4249,258899
40,0,44,1095,4307,258853
17,52,54,1144,4249,258851
14,80,-75,1143,4201,258822
40,120,-60,1162,4281,258786
18,32,-67,1115,4222,258807
4,5,-76,1111,4214,258869
5,54,11,1081,4196,258754
34,62,38,1112,4263,258768
38,96,95,1128,4247,258805
-6,189,45,1203,4171,258818
-23,270,-105,1182,4207,258760
7,237,-76,1117,4221,258848
-16,169,-46,1123,4176,258822
-16,158,-178,1118,4152,258799
-15,117,-192,1142,4224,258716
-5,99,-98,1123,4237,258823
2,139,-71,1150,4243,258862
-24,221,-27,1086,4248,258858
-57,240,8,1092,4229,258837
10,211,53,1176,4214,258769
14,177,72,1171,4203,258779
-8,137,88,1093,4197,258781
23,116,67,1103,4240,258801
16,148,102,1139,4211,258735
12,144,36,1119,4279,258741
-25,183,123,1145,4250,258868
-22,206,122,1075,4218,258822
1,206,46,1171,4184,258798
-42,132,108,1160,4232,258942
-28,11,223,1143,4234,258831
-1,-28,208,1139,4178,258922
21,-8,210,1044,4209,258834
-11,-4,116,1051,4249,258890
-41,32,96,1140,4202,258863
-34,69,22,1146,4266,258842
-60,67,29,1020,4250,258880
-69,16,44,1074,4215,258863
-56,-27,69,1154,4185,258806
-35,-39,125,1131,4159,258873
-45,-12,106,1139,4243,258832
-61,24,120,1104,4205,258864
-69,70,117,1078,4218,258671
-77,110,42,1084,4183,258759
-100,88,35,1062,4203,258802
-97,36,24,1156,4197,258840
-110,-17,-71,1135,4256,258715
-112,-67,-52,1153,4172,258750
-112,-62,-40,1091,4186,258835
-153,-24,-40,1072,4151,258813
-133,51,-23,1110,4172,258818
-139,56,-15,1102,4275,258799
-119,37,15,1129,4263,258853
-101,24,61,1087,4168,258907
-102,-40,39,1064,4198,258725
-82,-103,61,1112,4217,258794
-51,-99,90,1107,4213,258847
-89,-21,12,1157,4184,258803
-105,31,3,1138,4239,258797
-87,15,7,1161,4202,258866
-62,41,39,1134,4150,258840
-101,60,23,1050,4208,258707
-84,-7,42,1075,4259,258765
-46,-79,100,1099,4201,258822
-66,-46,90,1086,4157,258905
-49,40,41,1093,4196,258784
-75,92,29,1174,4174,258772
-58,137,26,1192,4171,258700
-68,165,74,1133,4273,258849
-101,162,98,1142,4231,258846
-77,119,118,1061,4254,258905
-57,74,125,1090,4186,258750
-89,78,154,1097,4252,258770
-60,131,141,1133,4216,258857
-110,197,47,1092,4280,258958
-131,203,75,1067,4180,258919
-103,140,86,1120,4211,258852
-112,127,60,1189,4160,258747
-113,128,29,1146,4178,258728
-111,88,-4,1123,4206,258738
-110,90,76,1103,4260,258829
-100,142,67,1137,4250,258819
-124,192,18,1162,4263,258967
-106,192,9,1105,4163,258757
-110,141,33,1129,4170,258787
-87,86,0,1156,4192,258795
-109,38,-23,1166,4224,258839
-78,-19,13,1092,4227,258800
-69,-13,15,1104,4232,258707
-64,41,34,1082,4206,258655
-88,91,-20,1038,4184,258748
-58,117,-6,1101,4178,258782
-52,101,12,1092,4207,258798
-48,66,33,1092,4183,258857
-16,27,42,1137,4211,258881
11,-22,-2,1133,4168,258734
-23,-1,-12,1139,4178,258787
36,13,28,1066,4216,258778
-16,62,-42,1137,4211,258765
14,90,-6,1105,4179,258816
17,99,19,1109,4121,258835
26,30,90,1156,4169,258818
23,-26,41,1099,4191,258835
39,-48,49,1070,4207,258788
20,-40,38,1093,4206,258908
32,-14,38,1082,4153,258878
53,48,3,1097,4196,258920
32,147,13,1178,4126,258855
21,188,-18,1106,4168,258958
29,139,-28,1139,4210,258905
56,72,63,1054,4255,258908
52,23,63,1171,4297,258835
67,68,21,1066,4183,258784
70,103,4,1116,4250,258754
86,107,17,1142,4262,258837
65,153,-2,1126,4298,258847
60,194,-31,1109,4195,258811
76,152,-43,1135,4242,258794
98,32,48,1064,4215,258871
85,-15,42,1158,4208,258903
106,50,3,1122,4252,258806
91,85,-20,1169,4247,258804
84,76,46,1095,4176,258693
101,112,-11,1166,4140,258802
77,183,0,1193,4202,258766
86,137,-30,1109,4253,258958
99,31,64,1121,4221,258894
104,-17,43,1095,4196,258814
117,4,-11,1102,4227,258705
80,59,28,1140,4168,258822
103,90,76,1148,4179,258822
60,121,-12,1132,4249,258768
56,161,-5,1151,4256,258845
29,127,43,1143,4232,258810
27,52,38,1044,4197,258816
39,25,-6,1081,4206,258749
33,36,9,1029,4295,258834
7,55,4,1083,4272,258911
1,66,-52,1131,4227,258915
-6,60,-43,1082,4173,258749
-64,56,-1,1132,4206,258798
-44,61,-53,1187,4108,258870
-73,17,-52,1171,4143,258840
-74,-43,27,1165,4168,258928
-86,-24,-5,1147,4232,258757
-74,48,-9,1122,4260,258762
-79,78,8,1110,4217,258923
-118,79,-43,1072,4226,258952
-103,105,-21,1046,4272,258897
-121,93,-1,1089,4260,258850
-126,30,33,1187,4196,258818
-112,11,47,1158,4106,258820
-123,35,6,1079,4168,258808
-106,96,5,1161,4254,258825
-79,146,97,1231,4255,258904
-81,161,-2,1130,4229,258917
-64,173,15,1106,4204,258889
-51,133,64,1199,4269,258839
-34,63,35,1149,4223,258834
-20,60,18,1092,4170,258813
-28,84,61,1121,4207,258853
-16,103,13,1129,4227,258762
20,163,63,1133,4262,258786
-21,246,23,1094,4327,258796
2,206,16,1122,4206,258756
22,117,79,969,4225,258733
49,48,116,1049,4218,258766
56,-7,50,1122,4194,258807
46,-22,97,1097,4301,258693
46,-28,73,1077,4252,258844
63,31,77,1136,4219,258873
5,91,25,1142,4150,258902
20,82,21,1165,4229,258839
65,43,15,1154,4179,258788
31,16,69,1116,4167,258791
34,6,-3,1105,4195,258804
43,16,28,1111,4211,258814
47,35,57,1141,4186,258862
60,68,-17,1141,4179,258853
17,148,-35,1082,4202,258794
-7,144,-13,1073,4252,258843
2,109,-51,1067,4270,258721
24,87,25,1092,4176,258810
6,76,-21,1111,4163,258806
10,60,-84,1095,4211,258787
44,99,21,1087,4219,258782
28,119,-68,1120,4236,258909
25,161,-71,1070,4227,258865
-18,166,-11,1087,4236,258736
13,83,-26,1117,4195,258694
34,12,9,1178,4159,258839
24,-20,7,1130,4254,258752
13,2,-77,1047,4235,258818
31,43,26,1051,4237,258822
12,69,64,1137,4242,258814
-7,111,-27,1122,4229,258765
-25,130,51,1133,4228,258896
-17,10,6,1157,4231,258946
-6,-74,26,1079,4207,258780
-20,-49,93,1124,4196,258772
-18,-44,14,1124,4229,258906
-16,-8,34,1135,4288,258801
-26,82,128,1155,4243,258765
-52,157,-35,1099,4241,258839
-50,204,14,1095,4267,258890
-53,157,84,1126,4277,258796
-64,81,-34,1162,4233,258857
-61,46,33,1141,4211,258841
-66,34,112,1058,4203,258781
-35,61,-3,1141,4216,258771
-56,127,65,1139,4243,258751
-109,170,33,1099,4190,258788
-82,177,-23,1080,4186,258817
-93,195,104,1145,4223,258877
-95,138,72,1132,4205,258836
-66,101,49,1160,4177,258770
-51,109,126,1171,4181,258680
-49,116,-2,1109,4220,258781
-51,144,3,1109,4215,258719
-65,170,15,1074,4287,258742
-63,150,-71,1116,4297,258733
-36,121,29,1095,4200,258816
-41,71,64,1166,4177,258785
14,36,-41,1126,4223,258645
23,58,101,1114,4246,258691
17,62,83,1141,4230,258759
35,89,-31,1181,4297,258876
22,126,66,1079,4267,258821
5,71,44,1058,4221,258873
41,0,14,1149,4225,258768
14,-18,73,1160,4162,258608
7,-82,-22,1119,4209,258829
57,-118,47,1121,4218,258847
47,-74,62,1061,4202,258855
30,17,-34,1105,4216,258744
1,42,2,1100,4241,258811
-24,0,106,1169,4216,258847
-9,-27,-8,1133,4153,258969
-40,1,23,1176,4252,258782
-94,-34,9,1184,4274,258815
-70,-67,-11,1099,4217,258971
-92,28,50,1224,4263,258824
-106,116,-51,1171,4215,258824
-137,158,-13,1176,4293,258821
-137,128,63,1092,4234,258693
-115,88,46,1139,4201,258722
-121,84,55,1118,4213,258841
-110,32,128,1078,4153,258896
-81,-4,68,1116,4205,258776
-32,51,140,1098,4116,258782
-43,123,70,1136,4130,258766
-3,164,-24,1109,4143,258731
14,179,3,1085,4203,258780
49,130,24,1102,4187,258837
65,145,4,1144,4150,258800
52,159,9,1136,4144,258796
96,130,35,1172,4183,258848
117,150,79,1135,4196,258695
78,215,6,1151,4188,258825
49,238,-50,1142,4229,258818
-3,194,55,1164,4192,258841
3,111,85,1095,4143,258907
-21,90,16,1116,4295,258902
-38,59,84,1124,4273,258843
-55,-1,82,1112,4225,258916
-71,8,88,1001,4317,258782
-78,74,88,1093,4275,258864
-165,116,30,1127,4243,258779
-166,75,49,1146,4226,258811
-178,16,143,1143,4184,258784
-184,-33,50,1071,4207,258871
-216,-18,10,1083,4189,258758
-242,-52,86,1107,4126,258813
-202,-37,75,1069,4193,258814
-231,36,21,1071,4250,258796
-335,95,84,1132,4220,258833
-327,66,83,1093,4182,258810
-272,38,108,1098,4193,258860
-305,2,133,1172,4261,258728
-272,-21,77,1111,4161,258698
-173,-39,110,1107,4169,258741
-132,-25,38,1162,4249,258843
-72,-18,23,1145,4215,258814
-31,-3,40,1146,4250,258844
17,-5,12,1091,4324,258816
109,-21,-63,1115,4266,258801
126,-64,15,1186,4242,258756
163,-92,-14,1071,4163,258811
243,-23,-37,1086,4144,258826
229,29,6,1069,4221,258826
213,17,-21,1060,4211,258780
208,15,-5,1059,4175,258796
165,20,48,1071,4158,258824
133,8,-50,1068,4188,258814
159,8,47,1096,4213,258894
117,24,54,1181,4172,258900
171,112,9,1112,4148,258835
156,249,15,1191,4208,258814
69,324,-14,1191,4179,258828
57,336,-12,1158,4208,258874
25,307,50,1185,4203,258833
-20,309,69,1163,4234,258936
-72,254,9,1172,4304,258882
-107,177,122,1114,4190,258789
-132,115,104,1109,4122,258762
-192,194,73,1119,4130,258805
-266,237,87,1106,4227,258814
-327,171,90,1076,4216,258829
-359,149,204,1039,4193,258734
-381,153,161,1089,4237,258771
-380,78,94,1197,4203,258872
-361,-13,124,1185,4224,258767
-296,9,159,1185,4248,258857
-245,124,6,1120,4203,258757
-234,214,5,1119,4191,258712
-222,196,-20,1183,4285,258773
-130,197,-49,1122,4370,258804
-147,198,45,1100,4240,258821
-128,99,-12,1080,4198,258835
-70,30,27,1086,4172,258745
-49,-3,46,1156,4124,258765
-40,-37,-2,1081,4216,258940
-50,-31,52,1147,4172,258802
-47,-21,59,1165,4205,258833
-42,-106,-12,1117,4158,258798
-5,-164,92,1092,4266,258848
-17,-221,57,1155,4235,258794
72,-252,-61,1101,4153,258734
133,-240,71,1085,4176,258736
164,-196,-43,1144,4216,258832
147,-47,-71,1066,4258,258850
134,24,-64,1143,4291,258987
150,6,-112,1150,4261,258826
129,22,-82,1122,4176,258840
113,7,-72,1087,4186,258846
122,-38,-193,1099,4210,258794
150,-18,-42,1163,4197,258688
172,43,-62,1196,4179,258795
165,111,-163,1151,4258,258833
157,186,-10,1099,4214,258824
148,182,-37,1100,4191,258857
223,144,-70,1077,4217,258875
227,119,81,1108,4223,258859
285,74,46,1074,4291,258867
362,85,-32,1104,4196,258792
385,104,23,1193,4124,258778
394,106,-51,1175,4206,258821
401,164,-37,1154,4267,258835
363,194,-13,1136,4229,258936
330,122,-100,1078,4275,258862
352,52,54,1086,4176,258810
271,57,21,1152,4176,258899
285,89,-70,1114,4165,258979
237,130,70,1126,4260,258850
184,130,66,1143,4222,258903
106,179,-18,1128,4249,258825
14,212,58,1163,4270,258813
-42,144,89,1106,4295,258734
-55,79,51,1176,4185,258797
-114,106,82,1146,4124,258786
-126,117,-9,1148,4190,258799
-163,137,-19,1134,4101,258826
-182,160,56,1114,4200,258810
-243,179,-22,1093,4244,258813
-323,184,3,1135,4233,258777
-346,98,37,1110,4205,258837
-399,12,57,1087,4159,258756
-380,-18,70,1125,4163,258776
-405,-2,51,1126,4178,258872
-414,35,19,1094,4188,258861
-405,83,104,1129,4222,258791
-398,104,32,1155,4190,258883
-394,104,40,1154,4221,258814
-402,80,108,1065,4178,258821
-371,13,70,1158,4224,258874
-323,-35,35,1094,4225,258822
-270,-19,93,1077,4227,258772
-236,26,9,1146,4255,258722
-177,84,-60,1127,4184,258917
-112,90,12,1139,4196,258798
-115,76,-60,1134,4256,258756
-79,54,-9,1098,4155,258718
-59,22,-6,1117,4144,258802
19,-23,-45,1109,4144,258896
64,-8,-2,1094,4160,258921
83,63,56,1154,4220,258843
153,124,-35,1192,4170,258817
171,190,19,1146,4236,258771
180,196,67,1085,4278,258834
204,180,15,1005,4189,258871
245,139,25,1128,4223,258805
286,72,4,1175,4153,258821
337,60,-4,1163,4080,258754
364,110,7,1118,4140,258864
358,156,-71,1146,4205,258749
390,155,-21,1212,4157,258745
341,126,-36,1102,4160,258882
344,71,-1,1117,4137,258920
342,-7,32,1164,4131,258833
344,-28,29,1207,4274,258794
367,-34,3,1080,4208,258852
335,14,59,1151,4233,258863
294,100,21,1168,4230,258877
279,168,-20,1118,4274,258826
225,139,34,1115,4217,258836
168,73,30,1095,4263,258888
136,42,8,1124,4165,258682
116,26,3,1114,4226,258812
89,7,-10,1123,4225,258791
92,24,-6,1145,4177,258790
51,99,12,1140,4193,258906
-19,150,38,1107,4269,258832
-74,132,67,1184,4201,258893
-128,42,88,1147,4198,258811
-183,-24,92,1082,4157,258821
-197,-37,86,1075,4144,258855
-218,-33,36,1145,4161,258877
-258,8,22,1166,4195,258936
-274,88,61,1154,4221,258902
-314,154,-11,1112,4191,258779
-352,166,-20,1055,4171,258894
-421,126,64,1128,4154,258817
-451,69,67,1136,4191,258773
-466,55,42,1106,4197,258772
-461,94,79,1130,4203,258725
-459,99,81,1108,4256,258844
-408,143,112,1153,4225,258907
-457,208,104,1139,4193,258915
-438,197,49,1050,4185,258836
-432,104,98,1093,4175,258770
-393,13,123,1174,4266,258773
-350,13,64,1160,4259,258799
-316,17,86,1155,4181,258753
-260,44,58,1132,4130,258896
-211,134,57,1109,4195,258802
-176,205,72,1177,4225,258885
-187,181,7,1090,4226,258923
-162,135,39,1088,4194,258850
-104,94,79,1104,4143,258766
-90,64,-43,1034,4247,258798
-9,83,-7,1107,4202,258744
15,131,35,1115,4175,258820
93,145,-36,1100,4246,258865
129,206,50,1089,4189,258818
133,186,11,1157,4196,258776
138,103,-34,1181,4150,258726
201,8,64,1140,4110,258727
237,-39,-47,1155,4196,258708
266,-11,-73,1108,4219,258851
322,14,-29,1129,4232,258828
348,-17,-91,1218,4191,258823
331,26,-74,1166,4202,258787
313,-2,-50,1129,4232,258906
315,-89,-72,1070,4242,258748
346,-147,24,1105,4119,258864
331,-145,-3,1179,4169,258828
317,-113,-41,1118,4250,258788
330,-55,83,1109,4216,258925
333,13,11,1094,4253,258949
302,61,18,1065,4221,258871
230,49,124,1129,4278,258796
189,11,36,1138,4260,258885
180,-9,96,1140,4300,258788
138,-17,79,1138,4228,258787
93,-8,55,1100,4303,258780
68,72,57,1148,4232,258847
61,162,35,1115,4229,258812
-17,203,50,1064,4297,258819
-77,188,90,1083,4181,258811
-114,146,118,1107,4150,258692
-116,87,101,1151,4192,258755
-178,48,88,1064,4237,258684
-200,66,125,1097,4135,258777
-194,166,81,1069,4193,258752
-221,269,29,1067,4203,258861
-244,300,52,1037,4237,258882
-290,241,105,1145,4257,258799
-281,204,68,1123,4220,258793
-316,146,23,1197,4139,258863
-342,29,12,1090,4205,258869
-337,-12,39,1140,4145,258932
-320,63,12,1149,4142,258869
-308,149,-10,1109,4253,258881
-356,169,18,1106,4193,258846
-354,131,-6,1085,4156,258791
-345,106,48,1114,4192,258842
-340,52,78,1136,4196,258815
-303,-6,-25,1117,4187,258766
-292,-11,16,1110,4158,258718
-258,24,92,1135,4167,258777
-229,112,-7,1083,4256,258780
-226,169,44,1086,4253,258694
-264,142,66,1166,4195,258770
-205,71,96,1154,4266,258792
-159,30,97,1131,4213,258784
-187,16,9,1083,4250,258787
-152,-9,-27,1133,4208,258808
-76,0,71,1066,4191,258843
-80,41,-13,1130,4201,258720
-48,85,37,1126,4144,258702
-68,19,70,1127,4179,258737
-10,-70,67,1172,4160,258758
13,-78,162,1150,4184,258883
37,-120,112,1113,4269,258870
56,-128,16,1028,4284,258817
160,-91,117,1174,4248,258845
120,-10,113,1112,4254,258853
165,55,75,1117,4299,258750
141,51,85,1126,4211,258851
169,-13,99,1126,4163,258850
185,-70,101,1162,4210,258780
147,-54,28,1111,4230,258808
152,-16,-33,1106,4241,258803
187,-8,2,1047,4225,258814
171,54,37,1147,4221,258712
157,150,14,1108,4214,258834
130,147,13,1127,4252,258798
131,46,62,1129,4206,258743
135,-15,101,1109,4190,258866
103,-3,-5,1119,4145,258911
85,1,-30,1116,4133,258909
87,24,-44,1066,4168,258858
122,106,-48,1075,4153,258801
44,193,-81,1122,4209,258854
26,206,-43,1081,4272,258857
10,148,-30,1046,4210,258854
-11,95,18,1067,4140,258864
-30,50,20,1110,4162,258830
-75,82,-16,1087,4169,258847
-37,141,-37,1055,4137,258696
-71,194,-32,1133,4217,258834
-87,257,29,1045,4213,258735
-114,274,3,1086,4194,258689
-96,221,7,1119,4170,258751
-96,114,54,1126,4129,258815
-88,51,46,1142,4177,258736
-66,53,44,1183,4230,258838
-79,68,7,1142,4262,258845
-56,114,29,1135,4255,258759
-73,146,58,1123,4236,258702
-80,123,-15,1074,4245,258944
-46,81,32,1097,4164,258848
-81,31,22,1083,4164,258725
-40,-23,-42,1049,4234,258685
-24,-36,-28,1085,4176,258743
-29,8,9,1125,4194,258812
-27,104,-22,1132,4235,258770
-15,148,30,1084,4196,258829
-2,144,62,1023,4235,258839
12,146,31,1110,4194,258748
8,89,34,1129,4254,258756
33,4,3,1158,4274,258837
89,-2,0,1159,4210,258828
110,59,-22,1087,4266,258893
66,126,-63,1074,4248,258737
100,137,-51,1098,4208,258766
83,128,-21,1102,4143,258778
91,70,-52,1145,4228,258806
97,25,-38,1155,4237,258738
95,-8,-91,1111,4217,258720
126,-22,-97,1086,4237,258780
133,5,-22,1052,4302,258826
109,78,-103,1089,4220,258774
88,149,-115,1068,4197,258844
80,112,-2,1213,4155,258839
78,33,6,1162,4211,258748
62,25,8,1145,4219,258854
57,11,-2,1145,4227,258899
79,-35,-51,1146,4196,258860
97,1,40,1117,4206,258808
69,100,-7,1059,4276,258816
61,142,-23,1127,4226,258726
44,111,41,1191,4122,258712
47,48,119,1111,4182,258853
29,12,24,1099,4212,258858
39,-7,92,1123,4258,258813
24,-46,40,1112,4282,258842
43,-14,63,1119,4177,258872
16,82,50,1141,4163,258892
-35,143,63,1138,4284,258900
-21,149,47,1076,4210,258813
-16,104,153,1083,4220,258794
-45,76,67,1112,4180,258853
-60,68,4,1094,4093,258922
-70,60,6,1059,4149,258841
-94,55,9,1087,4191,258844
-111,118,2,1118,4216,258897
-136,187,-7,1105,4171,258742
-112,160,-41,1164,4242,258801
-138,94,-1,1115,4255,258883
-117,49,74,1121,4215,258908
-123,33,-85,1164,4175,258839
-88,43,-27,1195,4201,258802
-100,69,3,1118,4219,258960
-66,136,-3,1160,4241,258907
-84,214,-27,1129,4264,258914
-86,214,19,1086,4293,258934
-58,179,78,1152,4269,258829
-37,141,90,1150,4218,258832
-26,127,4,1125,4222,258743
14,113,19,1093,4248,258813
11,114,71,1104,4190,258787
52,141,0,1158,4250,258853
3,207,30,1104,4276,258854
10,183,95,1094,4247,258927
57,117,85,1117,4171,258925
58,78,136,1172,4211,258804
65,34,69,1112,4245,258835
91,33,17,1065,4153,258767
89,74,86,1094,4197,258874
65,116,36,1064,4256,258868
86,154,45,1088,4236,258884
71,150,79,1135,4245,258810
40,76,66,1209,4193,258853
83,22,43,1226,4253,258794
69,-25,85,1150,4242,258881
67,-28,4,1113,4198,258854
64,54,-1,1129,4224,258837
23,98,18,1092,4269,258904
35,114,10,1090,4184,258916
-6,111,38,1105,4186,258767
-6,78,117,1093,4174,258843
-32,9,33,1056,4163,258890
7,-37,65,1097,4134,258737
-41,-37,28,1121,4196,258771
-44,-20,-34,1086,4226,258845
-94,52,-57,1136,4217,258777
-108,87,-11,1120,4252,258842
-128,88,-58,1113,4269,258905
-153,59,-4,1109,4287,258751
-181,-16,49,1089,4223,258699
-139,-84,-14,1099,4188,258780
-171,-55,54,1117,4204,258742
-176,-24,-74,1113,4205,258776
-187,27,-6,1106,4242,258814
-219,69,10,1132,4290,258838
-223,89,33,1124,4207,258846
-208,80,20,1145,4152,258730
-175,35,83,1158,4226,258778
-166,-8,46,1125,4179,258908
-120,-8,57,1159,4178,258852
-114,20,33,1195,4213,258942
-96,46,13,1175,4188,258907
-117,116,54,1136,4298,258860
-108,121,59,1110,4277,258820
-90,104,49,1076,4135,258870
-94,98,113,1094,4188,258881
-50,90,71,1075,4224,258790
-27,57,46,1143,4256,258792
-33,74,77,1134,4263,258758
-56,148,97,1074,4278,258855
-15,198,45,1087,4293,258871
-27,201,99,1091,4261,258790
-41,177,110,1115,4255,258861
-24,154,81,1141,4228,258821
-25,142,54,1156,4202,258793
16,118,63,1085,4220,258782
-12,138,13,1124,4267,258845
19,198,-58,1088,4280,258731
12,206,-1,1046,4309,258753
-2,158,65,1089,4271,258776
44,117,24,1130,4238,258866
40,90,63,1067,4213,258848
76,24,-12,1154,4200,258821
102,34,-16,1169,4188,258839
102,50,-49,1179,4186,258756
77,76,-74,1088,4230,258773
86,128,-8,1139,4248,258804
75,132,22,1140,4195,258820
54,55,3,1104,4252,258896
61,-1,78,1187,4202,258817
80,-18,38,1105,4161,258905
86,-5,-21,1124,4209,258885
65,-2,34,1126,4256,258754
54,11,6,1135,4175,258713
25,76,-3,1126,4239,258758
-34,88,71,1066,4214,258874
-10,14,71,1023,4241,258771
-22,-61,70,1058,4162,258754
30,-68,117,1098,4156,258746
-16,-42,52,1139,4218,258773
-14,-40,59,1178,4188,258784
-27,-6,51,1184,4214,258746
-68,58,107,1192,4239,258691
-97,95,59,1174,4239,258791
-114,67,123,1102,4208,258769
-132,10,97,1104,4182,258811
-116,-17,96,1078,4188,258839
-116,-10,61,1151,4136,258876
-128,-1,50,1125,4250,258837
-144,52,26,1154,4218,258900
-143,104,42,1161,4214,258869
-218,154,52,1140,4221,258752
-206,96,42,1147,4242,258821
-188,31,123,1163,4150,258861
-203,13,91,1136,4253,258804
-136,41,11,1107,4239,258808
-188,67,15,1108,4265,258835
-154,83,-39,1109,4220,258755
-173,132,-30,1208,4206,258772
-202,167,-9,1122,4244,258778
-171,168,15,1057,4174,258830
-150,127,-20,1144,4192,258822
-120,85,72,1105,4213,258852
-99,97,-31,1123,4167,258781
-71,127,-2,1138,4246,258756
-88,143,14,1076,4186,258800
-50,150,16,1073,4174,258741
-102,199,38,1098,4231,258812
-49,198,32,1109,4298,258850
-38,93,31,1122,4199,258826
18,32,70,1111,4253,258819
25,27,25,1098,4273,258875
53,45,-7,1064,4185,258922
49,62,63,1071,4201,258885
-2,44,33,1125,4251,258709
9,63,67,1152,4209,258725
-6,31,109,1129,4199,258816
5,7,44,1097,4206,258836
51,-25,68,1081,4138,258856
54,-43,36,1103,4239,258689
75,12,29,1176,4226,258747
82,64,30,1158,4274,258811
14,43,-64,1098,4318,258810
51,20,46,1118,4233,258753
14,28,137,1097,4235,258747
62,-11,-31,1120,4251,258820
54,-23,26,1098,4206,258791
66,1,101,1151,4253,258829
148,7,-42,1161,4259,258794
140,61,-28,1194,4231,258821
42,134,42,1129,4159,258724
50,83,-69,1097,4216,258796
66,36,63,1121,4216,258872
49,-38,61,1216,4233,258897
64,-35,-6,1110,4174,258942
87,-16,31,1094,4208,258839
76,-25,-33,1122,4199,258852
73,34,-39,1111,4181,258797
26,96,-79,1134,4242,258788
-19,103,-122,1075,4241,258789
11,67,38,1098,4246,258774
-15,5,-7,1106,4192,258811
-51,21,-78,1041,4254,258779
-2,32,37,1097,4268,258897
-20,3,-8,1101,4255,258879
5,42,-2,1022,4198,258865
-47,115,4,1106,4246,258781
-83,123,-49,1119,4240,258703
-48,94,52,1148,4185,258753
-36,55,90,1085,4189,258830
-47,58,-21,1150,4177,258855
-9,74,40,1062,4306,258781
2,73,19,1115,4218,258849
11,88,31,1158,4203,258880
-29,179,4,1137,4180,258849
-72,182,-19,1157,4192,258874
-13,122,14,1080,4195,258788
-20,87,71,1113,4208,258844
20,93,-36,1110,4219,258830
42,119,-11,1110,4231,258834
59,97,27,1129,4222,258838
95,124,32,1139,4241,258843
55,163,19,1175,4252,258792
-7,179,34,1070,4231,258698
37,133,68,1104,4193,258731
59,70,50,1110,4211,258829
60,61,34,1087,4202,258805
68,69,-23,1090,4258,258713
120,78,8,1098,4249,258802
125,113,-13,1144,4134,258839
93,141,-40,1100,4219,258774
42,136,-43,1140,4250,258838
55,100,65,1077,4237,258848
93,24,11,1168,4228,258792
59,2,41,1183,4250,258861
70,39,34,1155,4227,258886
89,88,-5,1129,4309,258752
119,103,1,1174,4254,258844
25,116,-38,1126,4182,258779
8,150,0,1086,4202,258669
-13,116,-65,1174,4215,258719
-5,66,-23,1094,4216,258790
-21,43,-53,1125,4130,258717
-10,72,-35,1108,4195,258853
27,59,-113,1156,4246,258750
4,62,-48,1158,4193,258812
-24,104,-82,1123,4220,258756
-42,85,-86,1165,4219,258749
-51,43,32,1153,4212,258838
-56,0,2,1100,4182,258788
-18,-19,19,1037,4216,258757
-25,-15,81,1113,4229,258694
5,35,6,1090,4197,258751
6,130,-8,1117,4212,258807
-37,162,44,1115,4242,258841
-71,113,25,1110,4178,258727
-47,94,52,1152,4122,258756
-63,69,66,1106,4224,258855
-56,8,-9,1120,4187,258843
-46,-3,106,1109,4238,258834
-19,28,69,1043,4238,258792
-4,112,28,981,4232,258725
-88,133,50,1114,4240,258751
-97,112,65,1111,4210,258834
-72,107,69,1073,4172,258821
-100,97,77,1140,4226,258792
-92,56,90,1103,4211,258832
-29,14,122,1145,4194,258879
-28,45,135,1100,4159,258851
-24,95,63,1115,4195,258842
-62,139,89,1157,4250,258794
-123,137,77,1131,4253,258902
-74,121,86,1185,4201,258572
-97,118,57,1086,4181,258726
-75,108,59,1052,4186,258729
-33,110,6,1130,4175,258832
11,137,31,1109,4217,258775
-18,163,-23,1109,4216,258719
-23,201,-15,1124,4164,258769
-60,166,-43,1126,4216,258790
-59,117,-4,1098,4170,258784
-55,98,10,1103,4209,258814
-41,77,-44,1119,4212,258832
-15,68,-21,1076,4201,258742
25,73,0,1112,4240,258762
35,118,-53,1107,4257,258908
12,117,-11,1179,4283,258904
-42,91,-2,1217,4202,258871
-18,52,41,1164,4176,258774
11,10,24,1115,4206,258816
-102,33,39,1025,4188,258750
-21,44,66,1100,4209,258806
22,64,17,1111,4257,258776
11,105,27,1103,4271,258755
-38,170,30,1106,4182,258834
-33,148,-17,1131,4223,258869
-74,83,50,1177,4160,258725
-70,54,104,1103,4207,258800
-62,26,16,1114,4132,258846
-51,27,71,1139,4204,258840
-34,42,91,1090,4178,258831
-24,71,11,1126,4129,258907
-74,111,26,1134,4252,258902
-84,106,23,1098,4298,258815
-104,80,72,1109,4213,258834
-119,9,59,1171,4177,258770
-108,-31,46,1105,4158,258836
-65,-42,167,1080,4235,258893
-58,-26,49,1177,4274,258810
-59,3,76,1138,4220,258729
-90,41,119,1142,4155,258798
-90,46,61,1074,4187,258775
-85,45,37,1171,4263,258739
-121,31,130,1151,4254,258889
-117,16,44,1128,4200,258852
-62,73,108,1056,4201,258817
-45,100,133,1078,4226,258833
-15,94,48,1111,4272,258799
-62,138,136,1130,4248,258801
-75,143,76,1125,4193,258846
-55,95,16,1201,4188,258742
-79,56,68,1105,4199,258713
-45,35,36,1162,4233,258753
-1,48,15,1121,4230,258855
34,79,84,1125,4158,258853
33,108,-26,1157,4189,258899
27,111,15,1070,4190,258847
17,126,72,1181,4188,258820
6,123,-12,1145,4228,258844
5,81,-19,1112,4205,258800
-23,27,55,1049,4272,258817
48,50,-14,1082,4198,258827
53,122,-37,1139,4210,258772
39,139,-34,1104,4191,258698
40,130,2,1089,4254,258761
29,142,33,1101,4196,258871
19,96,-16,1087,4204,258764
-16,31,6,1118,4196,258691
-2,-16,24,1148,4205,258821
35,-10,16,1120,4159,258807
28,43,18,1140,4220,258952
0,65,-2,1052,4248,258887
-6,68,-6,1064,4204,258754
-17,48,2,1085,4222,258796
-41,56,39,1090,4187,258897
-59,10,9,1145,4168,258875
-71,-44,52,1181,4193,258854
-21,-40,57,1163,4264,258813
-42,34,56,1099,4169,258764
-65,98,28,1123,4219,258799
-110,92,12,1125,4197,258843
-88,76,32,1112,4200,258928
-136,74,54,1139,4213,258830
-146,37,14,1090,4233,258796
-146,3,54,1117,4242,258741
-119,5,97,1112,4232,258829
-109,40,16,1054,4193,258763
-123,88,36,1146,4212,258799
-144,118,106,1124,4232,258754
-126,88,-26,1138,4197,258835
-151,53,85,1112,4132,258859
-170,-21,104,1072,4169,258861
-141,-61,-7,1010,4246,258869
-112,-47,92,1122,4285,258787
-71,-38,30,1074,4204,258896
-101,24,52,1087,4147,258867
-103,80,37,1168,4165,258764
-101,57,-14,1124,4282,258762
-91,51,14,1076,4207,258845
-127,28,121,1071,4287,258776
-90,-18,-25,1125,4295,258841
-74,-7,61,1095,4213,258753
-51,34,116,1057,4175,258902
-5,67,27,1151,4224,258859
-16,143,112,1155,4216,258867
-41,168,9,1142,4247,258867
-15,133,8,1181,4271,258720
-13,89,85,1108,4254,258717
13,102,2,1142,4177,258767
38,131,-38,1065,4169,258715
54,97,43,1101,4232,258786
81,75,2,1044,4245,258753
69,150,-44,1112,4273,258756
22,176,16,1125,4260,258733
7,96,-40,1076,4133,258837
30,54,35,1117,4176,258692
15,69,-30,1075,4165,258701
56,95,-39,1102,4171,258763
62,105,-30,1088,4188,258905
75,101,-19,1076,4190,258801
70,125,-8,1109,4194,258829
39,151,8,1045,4192,258851
17,66,-53,1036,4213,258848
12,-18,24,1089,4188,258895
21,-62,39,1218,4175,258838
38,-14,-40,1211,4163,258809
61,6,-39,1161,4210,258741
71,9,26,1147,4226,258796
89,42,2,1104,4196,258815
34,51,-16,1176,4210,258918
-15,20,23,1099,4227,258822
31,-55,57,1127,4189,258837
51,-65,23,1075,4189,258818
50,-14,42,1095,4210,258789
29,31,-14,1118,4205,258801
73,58,4,1125,4212,258728
54,105,72,1095,4119,258764
0,134,-9,1145,4171,258789
8,131,23,1087,4217,258872
0,60,89,1102,4165,258953
23,-11,16,1075,4231,258885
22,42,56,1161,4222,258812
25,84,29,1144,4184,258830
36,95,44,1076,4155,258882
49,92,70,1099,4206,258854
15,111,39,1126,4167,258836
-33,92,4,1180,4171,258812
-25,32,38,1230,4197,258751
-3,-12,0,1186,4158,258889
16,13,39,1153,4200,258897
-6,37,26,1135,4208,258829
28,73,16,1123,4181,258792
11,86,29,1073,4195,258793
-37,76,-11,1112,4244,258720
-34,76,-41,1120,4200,258874
-28,62,28,1099,4205,258829
-26,22,-88,1064,4214,258762
14,36,-56,1144,4249,258795
5,73,-59,1083,4270,258858
44,142,-33,1097,4181,258835
69,170,9,1075,4225,258790
51,144,6,1096,4277,258855
18,133,35,1151,4198,258794
24,86,11,1061,4178,258855
61,43,-44,1159,4235,258886
73,31,-56,1217,4193,258788
88,80,-6,1167,4148,258895
105,121,-29,1130,4272,258848
104,162,-40,1117,4228,258816
87,177,25,1111,4258,258796
67,133,-4,1090,4269,258847
80,116,1,1127,4250,258805
65,79,-54,1140,4225,258776
76,76,-1,1155,4234,258787
115,41,-21,1058,4251,258737
109,86,9,1094,4211,258777
80,161,22,1088,4207,258792
67,146,-2,1090,4251,258735
20,108,92,1138,4233,258747
36,82,83,1131,4222,258726
-3,59,-20,1155,4215,258789
-1,50,29,1148,4238,258795
-3,48,62,1130,4252,258802
13,56,-15,1155,4272,258779
-30,88,37,1194,4253,258763
-83,76,24,1174,4261,258761
-70,33,48,1209,4187,258830
-94,6,88,1138,4150,258761
-97,19,30,1080,4229,258855
-103,79,32,1002,4226,258792
-112,143,83,1076,4183,258791
-61,165,8,1064,4175,258721
-94,221,81,1154,4246,258737
-110,227,84,1119,4197,258809
-119,185,57,1145,4244,258900
-107,108,118,1068,4239,258854
-129,95,50,1079,4250,258758
-117,117,23,1178,4220,258783
-85,126,50,1113,4217,258812
-54,134,42,1091,4191,258795
-86,168,38,1170,4221,258766
-119,169,53,1148,4193,258918
-104,85,61,1108,4214,258868
-79,16,21,1085,4181,258780
-95,-3,10,1112,4183,258747
-101,8,-4,1115,4239,258792
-60,32,11,1122,4203,258844
-19,59,38,1142,4184,258830
-77,88,38,1159,4219,258817
-87,90,80,1074,4223,258827
-85,75,51,1123,4204,258852
-75,30,14,1134,4162,258791
-84,7,1,1189,4228,258910
-99,34,5,1130,4258,258827
-50,65,27,1089,4253,258809
-42,89,34,1125,4208,258795
-44,100,20,1232,4204,258746
-61,99,34,1208,4210,258918
-108,89,39,1199,4125,258848
-39,32,28,1056,4195,258750
-44,34,-5,1084,4215,258828
-46,57,17,1071,4215,258729
7,81,28,1104,4224,258799
17,104,31,1115,4246,258830
1,137,48,1093,4207,258834
-14,130,54,1203,4213,258714
-21,71,62,1152,4168,258785
-2,11,41,1125,4203,258813
17,2,-6,1127,4203,258734
16,16,48,1111,4201,258788
14,85,-55,1063,4257,258824
59,156,-6,1090,4219,258897
11,164,8,1083,4241,258816
-14,122,65,1039,4150,258717
-8,104,101,1119,4190,258847
14,56,99,1161,4187,258813
-9,-16,34,1201,4152,258788
-28,-10,106,1168,4182,258697
-15,48,46,1126,4257,258773
12,108,-6,1094,4164,258791
-37,157,125,1114,4152,258704
-69,130,76,1129,4166,258830
-59,117,42,1129,4213,258807
-56,70,153,1120,4206,258780
-93,6,36,1105,4233,258773
-64,13,79,1082,4258,258789
-90,62,102,1116,4328,258818
-89,119,21,1098,4249,258785
-101,156,95,1087,4244,258837
-164,138,88,1070,4272,258843
-137,122,52,1078,4201,258865
-121,97,60,1168,4227,258791
-142,58,35,1094,4298,258752
-134,29,16,1142,4222,258782
-99,52,70,1119,4209,258860
-102,76,13,1185,4226,258769
-102,103,39,1140,4229,258829
-123,80,60,1163,4219,258805
-115,24,-7,1117,4220,258789
-76,-2,27,1040,4187,258854
-88,-11,-16,1110,4203,258740
-73,-22,-105,1163,4199,258844
-36,13,-14,1105,4219,258784
-26,53,-27,1018,4181,258827
-23,101,-42,1150,4171,258818
-35,78,21,1159,4250,258774
-25,41,35,1126,4199,258758
2,38,29,1098,4156,258775
0,63,20,1066,4201,258900
20,62,13,1160,4218,258814
72,67,-15,1136,4256,258701
56,111,51,1131,4262,258763
58,144,28,1177,4282,258784
40,133,85,1117,4205,258780
56,93,79,1087,4162,258823
42,49,33,1089,4171,258846
56,42,74,1151,4209,258850
27,15,27,1113,4223,258766
83,23,-12,1128,4183,258829
67,52,85,1167,4157,258901
18,78,71,1066,4206,258777
14,102,16,1098,4195,258848
17,87,111,1152,4207,258841
14,6,112,1120,4188,258776
16,-5,-2,1133,4200,258816
4,58,77,1134,4275,258736
0,60,-19,1122,4335,258837
-23,63,-38,1033,4232,258771
-69,90,40,1114,4198,258802
-48,91,-51,1072,4253,258883
-41,58,-40,1045,4238,258740
-39,9,44,1054,4185,258790
-66,-20,-15,1087,4197,258792
-20,24,27,1103,4149,258756
-35,46,65,1051,4237,258796
-30,47,-34,1053,4243,258833
-78,89,77,1132,4221,258808
-87,90,37,1114,4261,258831
-59,74,-46,1130,4193,258896
-102,47,94,1183,4116,258840
-84,-20,9,1128,4078,258828
-56,15,-8,1119,4186,258742
-41,92,48,1165,4199,258806
-65,99,-84,1166,4227,258843
-49,105,6,1142,4170,258801
-54,134,66,1152,4164,258848
-70,116,-61,1077,4257,258823
-54,51,13,1076,4288,258833
-69,-10,49,1095,4133,258881
-46,-6,-2,1155,4233,258727
-35,73,21,1130,4332,258803
-54,61,19,1131,4282,258817
-70,36,31,1075,4237,258842
-64,45,99,1171,4165,258898
-36,37,34,1097,4132,258870
-45,21,9,1179,4134,258899
-43,-32,143,1190,4230,258843
-9,-63,30,1112,4187,258791
22,-29,69,1098,4258,258758
-28,33,85,1146,4185,258839
-48,24,33,1136,4235,258778
18,-4,76,1175,4241,258752
-15,19,94,1114,4225,258854
-23,32,-28,1139,4277,258804
5,44,70,1163,4185,258795
27,32,44,1165,4151,258826
61,83,-27,1126,4218,258796
20,141,20,1067,4224,258784
29,112,-26,1106,4211,258806
54,86,10,1175,4164,258745
36,90,56,1080,4136,258776
40,69,-2,1111,4199,258872
42,67,-46,1119,4197,258830
84,50,9,1148,4230,258765
122,78,-66,1078,4211,258586
98,132,-45,1062,4214,258686
52,144,-48,1048,4278,258738
65,96,-19,1097,4245,258847
69,66,82,1119,4208,258778
47,50,10,1154,4207,258787
33,32,-27,1158,4212,258863
67,50,95,1158,4221,258896
69,46,20,1141,4237,258834
59,90,-83,1183,4225,258820
14,143,38,1168,4218,258812
46,85,13,1137,4215,258881
-15,52,12,1123,4196,258867
-30,21,94,1081,4172,258870
-63,16,32,1086,4234,258701
-34,35,26,1110,4183,258729
-52,52,79,1138,4204,258783
-68,69,17,1160,4192,258834
-85,81,70,1187,4174,258846
-97,83,49,1138,4248,258774
-68,36,27,1132,4198,258782
-68,35,93,1119,4147,258894
-69,26,52,1092,4092,258730
-18,63,23,1136,4181,258784
2,91,46,1098,4223,258838
-8,70,6,1184,4174,258892
-39,136,-5,1084,4171,258831
-16,170,28,1065,4214,258783
-19,85,-58,1173,4214,258922
2,40,28,1110,4147,258902
3,57,23,1117,4206,258937
43,94,-109,1173,4242,258883
58,104,-2,1151,4202,258861
35,101,-8,1127,4165,258835
31,139,-111,1135,4214,258742
43,149,-34,1078,4182,258812
9,81,-54,1102,4158,258804
26,39,-77,1165,4209,258812
43,20,-55,1125,4262,258788
31,36,-67,1068,4207,258796
46,88,-94,1173,4154,258827
56,118,-33,1149,4249,258931
36,95,-54,1107,4269,258871
25,129,-1,1098,4152,258838
8,148,24,1062,4167,258909
23,71,-41,1094,4252,258863
36,31,80,1139,4168,258901
33,30,57,1145,4164,258801
36,91,-39,1097,4253,258818
53,132,41,1081,4270,258734
10,107,80,1176,4185,258878
-8,137,48,1088,4185,258886
-19,180,119,1121,4192,258842
-16,115,44,1107,4233,258860
-2,71,107,1031,4228,258756
13,129,154,1076,4220,258738
47,160,-27,1079,4276,258807
23,121,16,1179,4254,258783
-10,106,94,1116,4206,258828
-1,116,-27,1077,4185,258931
-44,128,40,1036,4216,258893
-40,76,106,1070,4213,258833
-1,37,58,1100,4187,258870
4,73,73,1089,4169,258862
-7,83,21,1113,4197,258834
-3,80,-19,1118,4207,258770
-37,84,78,1080,4184,258749
-90,68,-17,1120,4242,258827
-40,55,30,1117,4193,258908
-76,50,83,1128,4263,258815
-56,7,-31,1117,4250,258736
-52,30,10,1105,4241,258703
-39,34,47,1115,4196,258857
-64,56,-53,1149,4205,258846
-66,93,26,1162,4214,258887
-103,53,9,1124,4238,258863
-101,24,-26,1099,4133,258819
-106,61,39,1105,4171,258803
-108,61,-35,1128,4257,258773
-56,48,60,1098,4174,258895
-103,72,67,1118,4182,258864
-115,130,-35,1123,4129,258822
-111,156,45,1081,4149,258780
-131,116,63,1068,4215,258835
-113,88,-9,1066,4167,258761
-113,100,86,1111,4126,258814
-112,55,60,1126,4212,258904
-100,48,8,1114,4289,258826
-49,74,78,1161,4243,258771
-55,82,71,1167,4316,258813
-61,100,-20,1016,4227,258719
-41,160,86,1150,4183,258721
-53,72,87,1152,4177,258733
-32,8,31,1105,4176,258784
4,53,66,1130,4213,258801
6,61,27,1133,4165,258842
49,36,73,1135,4215,258889
38,97,104,1215,4218,258825
20,179,-9,1159,4159,258863
20,144,38,1135,4241,258733
-41,45,79,1141,4095,258911
-5,56,28,1212,4167,258842
18,94,-17,1075,4219,258786
8,69,97,1021,4291,258871
31,77,111,994,4176,258916
7,155,116,1109,4256,258846
-55,159,61,1041,4230,258813
-42,132,53,1139,4221,258813
-63,176,111,1192,4217,258895
-50,161,89,1140,4265,258928
-39,99,84,1168,4263,258881
-41,126,149,1227,4234,258948
-46,157,13,1122,4231,258766
-19,134,6,1103,4230,258756
-51,133,81,1196,4211,258802
-105,149,2,1153,4166,258770
-64,128,30,1120,4222,258817
-80,63,71,1141,4253,258746
-22,72,-18,1192,4257,258781
-24,118,49,1156,4258,258731
-54,60,-14,1073,4189,258799
-25,54,-20,1015,4209,258795
-50,83,66,1109,4173,258823
-138,49,-65,1119,4259,258743
-141,10,-7,1098,4203,258787
-136,-2,80,1138,4218,258827
-91,-46,-22,1098,4217,258755
-77,-32,-51,1066,4196,258742
-86,-50,71,1164,4226,258767
-54,-85,41,1182,4203,258843
-47,-41,73,1142,4159,258791
-76,-11,14,1149,4227,258815
-109,-46,-6,1152,4159,258747
-60,14,78,1082,4213,258738
-10,36,-7,1133,4146,258836
-9,80,-40,1137,4159,258861
13,119,140,1102,4218,258799
73,116,4,1023,4220,258808
-25,144,5,1072,4255,258738
-20,128,110,1065,4279,258760
-58,84,-16,1141,4202,258786
-27,82,-28,1115,4168,258800
-5,36,86,1131,4188,258856
-26,17,2,1148,4181,258842
22,67,-14,1089,4155,258741
37,83,-31,1117,4186,258821
30,10,-6,1153,4209,258789
45,-5,14,1130,4227,258846
2,8,3,1060,4204,258877
-10,-29,-38,1113,4251,258871
10,-43,68,1151,4185,258821
2,-35,-13,1166,4160,258774
20,33,-57,1095,4193,258784
42,61,12,1083,4226,258807
3,51,-11,1135,4214,258809
-12,64,28,1180,4169,258902
-58,50,98,1119,4246,258899
-46,61,37,1117,4226,258825
27,84,52,1119,4213,258758
5,83,104,1174,4230,258848
25,66,14,1099,4246,258818
28,107,84,1129,4209,258865
-7,141,54,1045,4158,258879
-22,116,40,1064,4185,258849
-20,79,94,1151,4194,258839
-3,76,55,1197,4207,258852
1,76,15,1122,4159,258884
22,48,50,1108,4272,258870
0,20,19,1132,4197,258953
-6,64,-13,1027,4201,258796
-49,120,-3,1034,4213,258768
-86,85,-41,1058,4241,258711
-87,69,-30,1082,4270,258738
-63,54,-3,1048,4246,258753
-76,56,-33,1135,4260,258816
-36,64,11,1116,4203,258799
-14,7,40,1144,4154,258808
-13,8,44,1084,4219,258960
-35,62,31,1169,4194,258907
-76,56,-18,1126,4189,258687
-70,-6,58,1153,4255,258705
-41,-31,64,1082,4286,258774
-32,-10,-21,1064,4209,258865
-1,16,42,1082,4286,258836
9,-28,60,1150,4193,258784
1,-36,44,1136,4200,258753
-33,26,68,1071,4231,258854
-52,40,6,1138,4185,258806
-37,-4,24,1080,4268,258843
-9,-30,83,1125,4208,258836
-20,36,17,1106,4125,258894
-4,113,-5,1083,4264,258922
18,97,5,1126,4264,258758
22,66,71,1136,4234,258736
-37,123,45,1198,4235,258871
-42,135,9,1119,4247,258857
-29,79,29,1124,4305,258855
-21,66,66,1133,4251,258856
2,106,-6,1115,4176,258808
10,122,-40,1201,4251,258827
52,97,26,1114,4235,258749
88,67,35,1188,4197,258684
61,85,-29,1182,4171,258634
25,83,19,1189,4203,258728
17,57,27,1092,4229,258773
36,38,17,1106,4222,258724
42,46,-10,1080,4218,258744
12,84,7,1085,4149,258760
39,109,-40,1109,4143,258700
31,147,12,1085,4220,258783
-21,142,-7,1118,4216,258832
-38,156,29,1106,4133,258807
-62,158,16,1154,4152,258762
-50,137,-11,1152,4180,258689
-44,141,9,1131,4172,258752
-15,125,15,1145,4174,258780
8,156,-18,1218,4188,258812
-7,137,46,1106,4217,258833
-10,96,36,1149,4276,258905
-5,65,16,1136,4259,258942
-17,54,44,1148,4209,258794
-48,30,59,1147,4186,258807
-46,8,15,1102,4229,258652
-27,35,77,1052,4214,258707
-12,47,92,1103,4198,258742
-12,39,65,1133,4284,258895
-48,60,76,1155,4154,258939
-61,38,70,1104,4219,258913
-64,9,88,1107,4183,258841
-80,29,51,1185,4154,258809
-61,38,14,1137,4178,258868
-18,9,43,1140,4189,258810
6,2,52,1112,4149,258782
6,70,-29,1168,4124,258761
-9,33,-50,1161,4168,258924
-15,-75,-2,1093,4162,258891
-1,-96,7,1102,4173,258801
-12,-29,-63,1116,4207,258769
-15,-34,-88,1101,4197,258901
8,-26,16,1101,4185,258874
11,39,-1,1121,4172,258907
-5,108,-49,1118,4189,258867
-24,97,32,1061,4236,258844
-23,84,26,1051,4248,258811
-14,110,-3,1136,4156,258843
-12,134,5,1145,4265,258882
0,121,-30,1138,4303,258784
48,156,-22,1111,4273,258665
85,183,-69,1132,4218,258812
56,203,-42,1153,4221,258763
47,220,4,1115,4239,258828
51,188,-21,1153,4209,258835
50,112,-51,1114,4137,258764
39,94,30,1087,4177,258883
26,103,26,1090,4251,258880
63,135,-16,1080,4261,258848
73,119,66,1118,4210,258791
51,148,87,1130,4198,258830
35,215,116,1143,4233,258867
-17,194,61,1061,4197,258759
-13,118,98,1128,4217,258873
-20,138,73,1080,4202,258924
-21,196,53,1037,4207,258883
15,185,9,1092,4185,258828
35,135,40,1112,4184,258697
23,168,63,1116,4181,258727
0,190,13,1128,4237,258817
-8,166,-20,1142,4246,258826
-49,134,22,1128,4193,258802
-67,139,-4,1098,4118,258745
-61,143,-2,1117,4275,258822
-43,131,31,1198,4254,258834
-60,115,-4,1182,4228,258773
-49,121,22,1153,4153,258853
-67,135,7,1126,4221,258829
-77,112,-45,1097,4200,258806
-97,79,-24,1080,4189,258884
-121,59,-40,1126,4102,258851
-92,79,-29,1077,4177,258764
-60,108,-6,1053,4280,258837
-48,75,-57,1055,4168,258799
-56,77,-27,1082,4137,258792
-60,81,44,1127,4229,258719
-38,53,1,1143,4265,258815
-64,23,14,1064,4223,258761
-86,-8,36,1025,4224,258772
-36,-16,86,1081,4230,258871
-8,2,74,1105,4184,258887
-30,13,68,1096,4163,258841
-24,2,125,1133,4189,258820
-29,-43,178,1135,4232,258822
-25,-45,117,1029,4145,258893
-59,-70,86,1070,4191,258719
-60,-101,109,1189,4223,258865
-23,-84,116,1063,4219,258722
7,-27,95,1126,4253,258886
5,21,79,1112,4237,258848
9,41,132,1127,4248,258868
-1,55,94,1148,4254,258807
13,65,75,1136,4225,258787
-42,63,121,1160,4230,258814
-48,65,70,1089,4171,258786
-28,89,65,1153,4249,258838
-16,98,69,1109,4225,258713
-14,94,13,1063,4213,258835
-3,134,26,1094,4236,258803
-24,126,35,1079,4216,258811
-23,86,9,1165,4176,258781
-65,82,22,1140,4152,258819
-70,72,49,1106,4240,258675
-55,57,-30,1164,4183,258760
-34,91,50,1118,4193,258842
-14,113,-39,1151,4254,258868
-43,142,-73,1163,4296,258826
-22,155,18,1127,4210,258833
-13,106,-64,1101,4217,258830
-55,102,-79,1028,4182,258783
-92,116,-16,1112,4154,258853
-75,98,-88,1116,4210,258891
-30,119,-30,1091,4197,258780
-52,179,-22,1138,4223,258848
-85,180,-89,1096,4241,258840
-74,154,26,1120,4251,258888
-74,100,34,1135,4194,258808
-68,91,-28,1094,4215,258698
-119,114,92,1144,4163,258747
-106,94,69,1125,4142,258787
-36,97,66,1075,4173,258714
-19,127,141,1112,4136,258790
-40,150,78,1085,4158,258822
-25,183,79,1108,4181,258801
-29,150,140,1127,4252,258771
-50,63,86,1105,4175,258770
-87,48,54,1108,4149,258863
-54,53,81,1164,4239,258765
-32,9,71,1116,4182,258805
-22,-10,67,1089,4172,258894
-54,41,73,1062,4223,258807
-56,39,10,1138,4194,258787
-69,-5,83,1055,4257,258812
-56,-59,75,1108,4239,258917
-88,-53,-3,1145,4216,258840
-75,-18,39,1139,4254,258705
-32,-18,63,1061,4253,258738
-15,-25,1,1045,4206,258742
-33,19,73,1047,4210,258856
-31,15,62,1127,4212,258848
-23,-48,-5,1096,4247,258791
-45,-79,76,1162,4225,258784
-79,-89,5,1206,4173,258826
-36,-46,6,1103,4152,258866
-8,-11,34,1078,4249,258804
5,-17,26,1123,4212,258699
22,17,49,1113,4164,258727
18,38,21,1152,4187,258818
-25,7,34,1102,4228,258868
-34,-55,24,1066,4252,258843
-31,-84,33,1121,4196,258832
-22,-56,-14,1101,4237,258778
-2,16,8,1103,4195,258682
15,37,-13,1099,4169,258892
5,49,-54,1064,4199,258868
15,61,25,1147,4293,258840
8,68,-59,1191,4236,258769
16,6,-49,1084,4245,258818
17,-51,46,1102,4321,258767
34,-59,2,1082,4275,258813
10,-1,40,1205,4283,258883
-4,42,31,1163,4216,258983
8,42,-14,1089,4254,258899
41,96,9,1050,4225,258892
-4,123,54,1112,4216,258892
-30,77,-4,1132,4225,258874
-38,49,55,1097,4182,258821
-41,54,91,1144,4136,258802
-32,80,-30,1070,4256,258868
-68,142,26,1125,4303,258800
-28,150,-46,1186,4247,258807
-27,148,-24,1110,4237,258738
-55,150,-5,1168,4235,258724
-83,148,-22,1175,4196,258824
-61,137,15,1167,4240,258809
-24,134,13,1134,4160,258780
-28,159,-7,1134,4226,258812
-23,195,10,1126,4216,258761
-35,189,64,1059,4213,258865
2,137,43,1143,4144,258739
-79,113,79,1111,4178,258779
-79,52,42,1099,4198,258817
-62,36,-13,1106,4157,258751
-29,8,34,1093,4195,258820
-21,-4,49,1110,4174,258818
-38,57,49,1107,4131,258750
-2,112,56,1147,4185,258846
8,92,106,1124,4235,258805
-5,55,61,1147,4235,258737
-22,72,53,1188,4257,258849
0,54,33,1109,4262,258710
57,12,16,1090,4191,258773
36,63,75,1088,4202,258829
22,106,3,1074,4215,258927
17,124,4,1151,4208,258898
22,109,80,1165,4230,258846
-6,44,32,1147,4215,258902
-27,-13,56,1161,4227,258813
-44,-26,111,1188,4190,258849
-27,-38,69,1173,4151,258875
2,-23,36,1113,4262,258833
9,12,20,1089,4261,258745
27,72,12,1085,4276,258736
36,67,-16,1141,4253,258771
27,16,-81,1145,4239,258830
1,-27,-65,1097,4255,258756
23,-33,-41,1099,4261,258782
5,-21,-83,1184,4206,258804
12,-8,-74,1107,4204,258748
48,16,24,1041,4218,258806
95,30,16,1108,4234,258838
66,70,37,1142,4233,258849
47,65,10,1080,4204,258767
5,18,70,1158,4213,258821
2,2,-17,1168,4093,258796
1,54,-26,1107,4244,258783
18,98,-92,1093,4182,258854
32,117,-81,1118,4217,258813
33,183,-7,1143,4249,258775
50,243,-21,1151,4231,258790
15,241,-56,1174,4222,258837
63,161,21,1137,4270,258840
38,118,70,1163,4293,258758
40,131,-34,1135,4253,258734
15,208,26,1086,4238,258779
27,183,3,1053,4204,258930
55,260,13,1062,4124,258814
19,323,17,1132,4212,258815
-4,282,7,1079,4178,258824
-19,211,27,1101,4188,258875
14,192,65,1058,4277,258820
-68,161,33,1146,4311,258876
-37,164,66,1198,4250,258836
-18,157,125,1135,4240,258720
-31,162,51,1140,4291,258779
-11,154,99,1148,4193,258799
-16,114,116,1111,4159,258883
-13,66,29,1132,4176,258833
-26,24,87,1109,4200,258708
-18,19,84,1142,4201,258810
-35,65,-2,1076,4240,258788
-35,116,69,1062,4214,258735
-21,85,23,1112,4269,258781
15,96,28,1065,4284,258824
-64,113,45,1105,4229,258847
-77,88,14,1097,4207,258882
-48,59,-8,1134,4156,258846
-39,42,32,1178,4120,258728
-37,90,13,1143,4217,258808
13,130,-44,1180,4259,258708
16,147,14,1117,4227,258698
-6,97,-24,1115,4288,258747
-19,67,54,1101,4217,258824
-33,53,-7,1119,4177,258859
-17,-15,-18,1092,4155,258817
-39,-35,35,1110,4196,258838
-4,-7,-30,1096,4233,258819
-15,54,-25,1073,4270,258832
-15,84,56,1138,4256,258836
-37,72,75,1046,4244,258833
-20,49,16,1099,4220,258850
-69,1,86,1061,4247,258760
-83,-73,55,1025,4206,258907
-94,-69,-39,1107,4186,258954
-130,-29,61,1145,4136,258860
-92,-8,37,1137,4258,258777
-95,56,-6,1120,4227,258817
-94,111,75,1112,4193,258723
-120,83,65,1092,4222,258793
-106,59,64,1181,4210,258778
-91,50,81,1145,4221,258766
-83,33,1,1151,4238,258866
-32,61,98,1129,4267,258875
-47,131,108,1116,4229,258788
-31,177,-16,1013,4236,258882
-59,206,56,1025,4281,258808
-45,174,86,1138,4238,258761
-41,162,-8,1162,4257,258875
-48,174,50,1229,4202,258920
-61,148,17,1174,4235,258804
-40,149,20,1121,4225,258816
10,173,57,1126,4220,258798
-30,178,73,1090,4264,258878
-44,179,97,1157,4270,258744
-24,161,116,1137,4213,258680
-50,103,-9,1055,4178,258752
-54,74,-6,1108,4171,258928
-70,112,43,1135,4233,258850
-40,122,-20,1127,4190,258811
-36,147,22,1241,4114,258793
-23,137,90,1073,4234,258851
-56,144,-27,1117,4238,258784
-60,105,32,1072,4241,258750
-52,23,53,1118,4215,258750
-28,-27,-41,1155,4188,258749
-61,43,-50,1099,4265,258697
-52,82,44,1079,4260,258808
-24,43,6,1089,4251,258743
-52,125,17,1081,4262,258697
-43,208,48,1066,4226,258781
-29,134,24,1133,4191,258774
-16,80,92,1133,4197,258787
-6,44,41,1151,4268,258837
-42,43,15,1159,4249,258804
9,55,114,1110,4198,258704
34,44,-7,1127,4231,258795
-15,70,29,1097,4195,258877
-3,89,35,1105,4185,258919
-12,77,74,1127,4271,258796
63,-28,-22,1136,4246,258840
-16,-94,68,1122,4165,258848
-5,-93,-12,1123,4249,258872
26,-33,16,1115,4201,258738
33,-48,31,1068,4199,258763
34,-27,71,1024,4186,258747
7,32,83,1164,4272,258805
53,41,-38,1143,4233,258830
34,-27,24,1145,4236,258877
22,-51,14,1093,4222,258791
45,-16,5,1167,4245,258804
32,-1,-30,1054,4208,258771
21,41,28,1089,4239,258715
-5,67,-10,1223,4270,258758
3,106,26,1118,4251,258844
-48,114,50,1138,4234,258885
-42,57,-3,1044,4211,258744
-52,17,61,1098,4228,258838
-77,3,25,1121,4205,258875
-67,31,-2,1157,4264,258824
-75,62,80,1077,4195,258873
-75,63,26,1131,4133,258877
-85,102,21,1102,4209,258816
-100,142,48,1096,4251,258839
-78,132,-1,1067,4241,258881
-69,82,21,1126,4246,258825
-116,64,82,1138,4159,258824
-64,102,22,1106,4150,258864
-56,91,3,1185,4205,258754
-96,94,29,1178,4233,258742
-64,66,86,1119,4176,258876
-67,55,-9,1079,4267,258845
-31,61,41,1146,4217,258824
-13,38,39,1132,4202,258867
-11,18,18,1113,4225,258817
43,20,26,1101,4221,258823
30,66,106,1100,4235,258799
42,66,-29,1138,4236,258874
21,34,73,1124,4235,258858
29,11,83,1138,4188,258885
51,-28,-10,1098,4236,258832
35,-38,44,1100,4222,258753
49,-47,-8,1116,4210,258843
62,-5,-12,1144,4251,258812
83,59,26,1168,4210,258831
46,61,-23,1217,4190,258928
41,48,9,1080,4236,258869
36,31,92,1118,4238,258817
18,6,28,1174,4242,258716
33,26,37,1157,4194,258714
-7,10,30,1102,4203,258868
32,4,-68,1092,4263,258797
48,61,20,1111,4183,258737
-15,95,-33,1155,4242,258784
-19,97,-107,1073,4266,258812
-11,64,45,1079,4197,258906
-13,23,0,1166,4208,258940
-30,16,-84,1090,4190,258856
-36,16,2,1127,4139,258865
-15,-2,25,1115,4144,258844
12,6,-35,1099,4196,258776
-47,90,12,1079,4190,258777
-40,94,-26,1104,4178,258748
21,49,19,1026,4140,258735
-41,26,77,1137,4227,258844
-24,23,-30,1114,4238,258802
-22,66,45,1120,4247,258773
21,29,-2,1086,4254,258725
-8,83,16,1134,4219,258794
-60,110,35,1205,4203,258868
-31,70,-8,1161,4193,258883
-27,48,59,1127,4225,258907
-34,13,133,1147,4245,258856
-15,-33,48,1096,4197,258843
-26,-40,65,1164,4198,258903
6,19,120,1049,4227,258994
13,33,0,1099,4214,258868
-37,24,56,1101,4253,258722
-33,64,81,1065,4195,258673
-61,90,-12,1129,4219,258664
-56,79,16,1195,4257,258827
-46,38,75,1075,4216,258851
-131,52,-14,1116,4140,258786
-57,143,87,1066,4267,258848
-55,132,37,1102,4304,258817
-84,124,9,1188,4169,258737
-129,169,92,1082,4281,258787
-118,127,59,1121,4234,258859
-96,92,34,1191,4220,258902
-134,60,100,1157,4179,258929
-110,62,12,1076,4175,258754
-49,63,73,1108,4201,258834
-103,120,60,1190,4186,258955
-58,135,-47,1142,4145,258769
-92,93,33,1068,4192,258788
-54,90,28,1057,4192,258817
-36,79,-90,1083,4159,258843
-40,15,-28,1117,4167,258800
-4,-50,11,1094,4210,258801
55,-12,42,1114,4234,258665
55,55,26,1114,4208,258769
-14,10,3,1023,4187,258764
16,25,37,1029,4137,258804
24,87,43,1107,4170,258836
8,76,-7,1151,4227,258788
-15,56,50,1169,4207,258818
-16,28,45,1085,4287,258806
22,60,52,1037,4228,258752
27,103,6,1047,4138,258762
-27,79,-101,1179,4249,258774
17,70,-52,1166,4219,258797
1,51,14,1135,4200,258767
-92,77,-70,1142,4189,258771
-8,90,-2,1146,4241,258712
16,73,84,1134,4201,258797
42,111,33,1147,4214,258770
54,196,32,1155,4219,258720
-8,234,72,1146,4241,258703
4,176,46,1111,4278,258821
-23,151,51,1078,4240,258821
-56,151,90,1083,4246,258831
-53,73,20,1172,4173,258861
-56,39,-35,1142,4152,258873
-5,50,77,1135,4158,258823
18,84,-14,1215,4233,258782
-16,88,20,1095,4302,258894
5,57,54,1114,4217,258737
35,93,77,1101,4246,258697
22,88,56,1097,4229,258824
6,95,98,1115,4201,258879
10,133,52,1135,4261,258847
78,192,73,1066,4297,258855
29,228,11,1127,4284,258916
-22,204,44,1136,4227,258774
20,204,52,1152,4159,258826
-19,154,-46,1123,4171,258869
-10,110,4,1161,4208,258871
-8,83,43,1138,4246,258894
12,58,-25,1124,4204,258753
49,93,-28,1189,4162,258727
37,114,70,1134,4212,258849
38,110,-11,1074,4225,258779
50,114,1,1146,4181,258813
9,98,64,1164,4194,258774
61,85,59,1135,4178,258820
25,136,73,1090,4192,258908
53,182,16,1116,4218,258812
49,183,18,1134,4303,258815
5,140,47,1095,4213,258744
-15,138,0,1157,4218,258803
-20,65,35,1155,4297,258841
-68,34,94,1169,4239,258796
-38,33,50,1162,4205,258817
-117,5,-37,1144,4227,258787
-64,16,48,1135,4252,258804
-88,69,-30,1177,4229,258819
-28,128,-207,1146,4228,258754
-77,136,-32,1124,4263,258858
-83,103,-154,1010,4183,258900
-37,176,-116,1110,4275,258864
-90,109,-52,1103,4221,258777
-68,37,93,1031,4137,258828
-20,44,64,1113,4183,258813
-29,131,77,1075,4237,258850
-64,122,38,1124,4315,258810
-27,81,-12,1108,4238,258731
-64,107,-11,1084,4180,258855
-76,92,8,1118,4191,258810
-117,65,70,1127,4237,258756
-46,59,81,1107,4263,258788
-62,78,76,1114,4221,258852
-45,88,23,1075,4224,258784
-8,71,11,1094,4178,258857
-30,76,-22,1068,4176,258769
17,93,104,1121,4254,258733
-25,86,68,1112,4270,258706
-21,110,99,1116,4214,258789
-47,90,90,1064,4232,258840
-3,89,117,1046,4254,258846
-18,104,58,1174,4293,258793
-53,152,126,1117,4247,258724
-45,121,118,1134,4240,258736
-84,67,79,1179,4144,258785
-105,76,117,1198,4192,258837
-117,67,38,1189,4222,258930
-90,30,-13,1196,4200,258780
-30,23,150,1133,4215,258812
6,64,86,1161,4229,258821
32,140,87,1103,4224,258787
-5,127,139,1082,4310,258870
16,63,81,1161,4267,258923
1,57,7,1098,4193,258815
-19,68,15,1064,4248,258838
6,55,27,1155,4308,258928
43,39,52,1101,4229,258847
18,66,2,1107,4236,258861
17,114,-31,1120,4264,258879
27,82,-2,1124,4192,258788
-4,58,-43,1140,4210,258793
-25,47,-55,1144,4145,258745
-70,69,-53,1113,4205,258834
-9,53,-92,1075,4291,258782
12,42,-18,1062,4192,258801
2,98,-39,1147,4180,258871
22,130,-168,1116,4086,258829
32,147,16,1100,4151,258831
-6,97,10,1163,4187,258894
2,49,-109,1132,4148,258808
-28,60,41,1163,4200,258666
-61,12,15,1141,4262,258747
-49,6,-8,1096,4261,258805
-62,9,66,1054,4229,258773
-68,50,45,1108,4177,258822
-65,73,44,1135,4172,258803
-116,42,79,1138,4223,258823
-111,10,31,1115,4223,258876
-133,-15,40,1064,4182,258778
-123,-14,110,1075,4170,258779
-136,-17,61,1139,4253,258780
-117,9,157,1166,4226,258768
-117,49,136,1188,4240,258820
-85,73,126,1164,4300,258869
-91,112,151,1176,4257,258810
-79,48,94,1121,4192,258816
-124,10,32,1140,4159,258811
-121,54,127,1125,4208,258814
-109,22,121,1196,4191,258899
-127,27,43,1205,4133,258747
-119,96,168,1093,4211,258794
-91,119,103,1125,4299,258773
-61,126,-1,1121,4199,258914
-113,79,32,1109,4191,258838
-62,19,-3,1157,4176,258946
-30,18,-53,1103,4244,258774
-30,40,-17,1095,4242,258712
7,6,-53,1044,4241,258749
42,-16,1,1109,4220,258767
81,48,-6,1151,4199,258761
68,41,-98,1108,4179,258871
71,13,-21,1081,4199,258791
47,0,-32,1126,4189,258844
97,2,-63,1081,4207,258749
69,52,2,1106,4166,258710
119,76,-10,1114,4280,258856
131,123,-49,1147,4219,258876
118,110,-14,1112,4206,258825
125,72,-54,1080,4212,258754
99,73,-103,1011,4195,258853
87,30,-84,1030,4242,258779
87,-32,-122,1106,4179,258800
103,-15,-50,1110,4269,258936
82,32,-42,1065,4223,258862
122,28,-75,1081,4240,258825
146,10,66,1142,4221,258765
126,33,6,1113,4222,258813
74,13,-64,1133,4242,258841
52,-56,-27,1137,4204,258959
43,-94,31,1155,4222,258847
30,-75,-23,1178,4254,258808
11,4,84,1160,4211,258773
48,8,72,1122,4248,258746
68,39,55,1161,4240,258795
44,50,90,1131,4225,258930
19,-14,37,1112,4192,258878
10,-45,105,1134,4238,258876
-27,-75,43,1141,4225,258790
-27,-52,126,1116,4177,258742
-20,15,126,1119,4241,258747
3,79,86,1135,4211,258883
8,111,68,1117,4192,258848
-20,96,114,1094,4196,258752
-25,72,41,1072,4190,258776
-38,47,52,1097,4268,258825
-86,45,42,1150,4251,258827
-84,26,11,1112,4186,258748
-78,28,68,1076,4216,258725
-74,82,60,1023,4148,258662
-89,133,35,1031,4260,258731
-99,128,39,1136,4257,258864
-94,89,32,1186,4260,258807
-123,68,-17,1156,4171,258842
-107,94,-68,1199,4209,258861
-95,77,-8,1176,4264,258832
-63,75,67,1186,4356,258791
-25,136,-8,1144,4297,258759
-44,164,0,1135,4246,258834
-27,147,48,1130,4227,258834
-45,71,-75,1144,4168,258769
-36,65,-86,1125,4236,258753
-80,54,-16,1141,4236,258794
-57,17,-106,1204,4243,258773
-31,28,-49,1096,4240,258824
-52,56,78,1090,4183,258833
-2,89,46,1142,4295,258894
-36,102,40,1048,4253,258830
-41,60,28,1096,4250,258811
-9,19,-14,1092,4206,258749
-28,15,-40,1141,4193,258730
-50,47,-15,1084,4229,258745
-2,85,7,1112,4211,258800
31,105,57,1092,4231,258799
-23,194,61,1071,4118,258752
26,196,36,1127,4187,258785
-3,160,56,1159,4252,258870
-3,71,15,1058,4257,258870
-38,83,55,1067,4239,258745
-46,107,11,1187,4172,258786
-22,94,66,1121,4237,258822
-24,126,157,1073,4284,258820
-6,147,147,1137,4287,258657
-15,139,77,1116,4192,258680
-14,59,54,1126,4252,258701
-12,-3,68,1122,4171,258782
24,-11,42,1121,4224,258863
-26,-4,62,1150,4244,258750
-5,52,121,1099,4255,258797
29,69,85,1162,4218,258887
17,68,43,1177,4196,258792
-4,99,-2,1207,4200,258792
-24,83,15,1190,4203,258822
-28,6,-2,1101,4236,258797
-81,-45,31,1104,4182,258876
-116,-9,58,1110,4186,258817
-106,65,13,1097,4360,258963
-98,95,71,1106,4296,258810
-98,137,106,1113,4202,258810
-114,150,77,1093,4204,258807
-131,142,10,1108,4257,258843
-117,110,36,1146,4255,258690
-119,77,-14,1134,4210,258796
-110,103,-17,1132,4206,258827
-107,139,16,1123,4179,258869
-56,154,19,1149,4234,258914
-59,186,51,1147,4325,258773
-40,205,95,1161,4264,258836
-65,160,-12,1110,4190,258845
-66,118,74,1113,4244,258830
-61,84,39,1134,4208,258801
-71,68,-19,1154,4205,258822
-97,119,82,1084,4251,258868
-43,153,129,1084,4293,258865
-37,155,67,1088,4242,258802
-30,187,93,1137,4183,258772
-29,180,62,1150,4142,258798
5,115,-60,1107,4118,258694
-9,111,-14,1055,4165,258858
-28,74,-21,1098,4193,258894
26,88,12,1081,4140,258812
36,138,45,1079,4099,258738
51,169,-56,1075,4269,258825
58,122,32,1089,4239,258769
59,36,-15,1185,4126,258731
40,64,-70,1149,4173,258769
37,37,-53,1015,4207,258712
-14,4,-1,1143,4196,258711
55,37,8,1088,4158,258814
20,158,63,1157,4187,258918
14,203,-43,1101,4191,258816
44,187,33,1089,4185,258746
21,136,55,1134,4206,258795
12,94,-33,1063,4279,258798
-3,50,3,1142,4291,258829
-30,21,37,1215,4230,258915
4,4,16,1158,4201,258830
-12,82,50,1107,4225,258782
-28,124,18,1127,4272,258869
12,121,51,1110,4241,258902
-14,61,148,1135,4115,258830
-17,30,85,1101,4119,258817
-33,44,48,1128,4183,258833
-50,19,72,1119,4203,258776
-4,-14,84,1071,4184,258719
-29,32,76,1101,4166,258779
-28,88,83,1158,4255,258734
-50,60,45,1083,4261,258745
-51,9,51,1110,4236,258878
-27,-1,13,1126,4273,258701
-74,-8,-101,1117,4217,258725
-74,5,-12,1159,4205,258766
-34,30,39,1152,4220,258811
-50,92,-2,1140,4133,258830
-34,204,37,1163,4145,258831
-28,245,49,1137,4248,258922
-13,226,-56,1078,4268,258885
-32,195,30,1125,4208,258814
-70,171,10,1086,4263,258774
-44,157,-42,1131,4265,258869
-52,139,30,1168,4237,258789
-86,122,49,1104,4251,258839
-72,153,14,1124,4150,258819
-70,161,-35,1166,4180,258730
-70,84,-43,1140,4193,258875
-83,36,-3,1113,4189,258835
-95,72,-83,1088,4161,258749
-65,68,-119,1115,4214,258689
-55,29,44,1093,4259,258726
-44,71,12,1066,4220,258803
-10,133,11,1049,4240,258816
-6,121,100,1124,4226,258793
2,67,107,1164,4166,258805
18,70,30,1101,4228,258827
-10,56,29,1094,4249,258895
23,29,-28,1098,4267,258849
18,70,37,1147,4181,258805
7,94,45,1134,4239,258787
45,84,13,1172,4253,258886
67,97,127,1154,4209,258863
53,93,17,1119,4164,258841
67,30,51,1139,4226,258793
40,19,77,1133,4203,258783
71,51,28,1057,4258,258871
60,85,12,1028,4181,258822
40,136,146,1036,4151,258827
47,179,44,1164,4197,258873
63,181,45,1125,4181,258767
45,101,57,1087,4211,258794
31,18,28,1114,4149,258759
36,4,14,1126,4168,258781
25,-39,-12,1085,4188,258757
19,-18,34,1128,4136,258672
44,62,78,1082,4150,258811
12,103,21,1123,4153,258816
15,98,38,1111,4176,258770
14,50,40,1063,4217,258761
-56,-12,17,1036,4183,258837
-35,-103,-15,1130,4238,258772
-49,-138,-3,1131,4250,258835
-72,-66,-1,1173,4219,258785
-40,-2,67,1080,4149,258861
-67,-9,22,1175,4193,258746
-65,18,16,1179,4271,258708
-43,18,26,1163,4251,258744
-50,-20,-44,1115,4191,258765
-17,-29,32,1086,4199,258798
-55,-28,-49,1082,4205,258814
-62,-9,-40,1151,4207,258831
-37,43,39,1139,4174,258819
-125,149,-16,1156,4236,258848
-75,157,-65,1161,4157,258786
-89,111,-42,1105,4206,258808
-101,83,-13,1158,4229,258903
-52,58,-53,1156,4135,258867
-34,14,-87,1134,4238,258874
-18,29,14,1080,4263,258756
-42,112,61,1146,4187,258795
-23,124,-17,1111,4228,258846
-1,119,5,1146,4202,258869
-6,97,90,1145,4153,258781
29,72,25,1115,4199,258821
14,35,-16,1207,4152,258844
26,-15,-7,1119,4199,258759
25,-29,1,1135,4246,258720
39,18,50,1166,4273,258749
49,73,42,1085,4221,258859
69,77,44,1180,4214,258895
63,54,117,1209,4214,258837
81,41,72,1143,4172,258789
51,34,26,1172,4187,258859
47,14,11,1079,4212,258737
62,-11,28,1012,4161,258750
60,21,86,1142,4233,258805
40,90,65,1072,4243,258783
48,102,-7,1065,4217,258762
26,54,35,1116,4224,258769
10,39,104,1072,4220,258805
7,53,-32,1121,4203,258767
2,77,-49,1132,4191,258770
42,65,37,1130,4222,258822
52,60,78,1182,4209,258774
18,125,-16,1108,4206,258778
33,131,66,1063,4268,258852
24,72,54,1133,4245,258875
14,4,59,1103,4212,258799
-21,-14,37,1092,4178,258776
16,-49,27,1148,4231,258783
-3,-56,-22,1129,4128,258739
-32,-20,31,1097,4160,258710
-13,6,-8,1062,4156,258660
-8,23,-45,1111,4317,258875
-17,26,-7,1142,4266,258835
-30,-59,19,1152,4203,258882
-12,-132,6,1084,4178,258839
-79,-103,-3,1144,4121,258812
-85,-26,-10,1123,4167,258870
-64,31,20,1111,4217,258833
-61,77,26,1065,4216,258822
-76,171,32,1166,4241,258772
-75,196,-7,1136,4311,258753
-77,113,61,1162,4246,258820
-95,76,9,1135,4165,258862
-99,101,-12,1114,4202,258724
-77,118,79,1048,4219,258770
-96,131,79,1104,4208,258715
-99,155,15,1171,4161,258828
-99,187,105,1120,4274,258851
-104,158,27,1079,4186,258827
-91,127,-26,1113,4131,258772
-101,74,63,1137,4156,258789
-110,9,64,1143,4148,258776
-108,42,31,1104,4169,258919
-129,63,141,1099,4164,258784
-131,63,106,1055,4215,258820
-83,83,115,1098,4208,258804
-76,96,61,1163,4291,258752
-54,46,59,1087,4223,258836
-51,-41,64,1097,4188,258814
-22,-62,74,1101,4125,258804
-6,1,13,1161,4160,258803
-25,87,9,1124,4187,258836
-20,136,-8,1116,4202,258856
1,137,36,1168,4258,258897
-18,139,-22,1107,4179,258839
1,121,10,1144,4234,258833
38,92,-4,1175,4252,258826
3,66,-60,1072,4215,258736
0,132,22,1084,4199,258790
-7,208,59,1110,4258,258806
12,234,-52,1090,4261,258767
-5,246,30,1063,4170,258895
-23,212,48,1094,4185,258850
2,174,-30,1168,4088,258842
29,147,-6,1162,4157,258894
-9,72,7,1126,4147,258917
-39,58,64,1120,4184,258888
-27,118,104,1119,4195,258786
-52,159,9,1146,4247,258785
-59,166,81,1128,4239,258857
-41,88,77,1108,4232,258818
-59,59,31,1098,4215,258789
-42,50,75,1122,4293,258801
-83,-38,52,1133,4206,258875
-41,-100,132,1152,4125,258845
-77,-62,147,1129,4159,258817
-83,-4,50,1134,4186,258862
-82,19,73,1132,4202,258800
-85,-20,89,1063,4220,258772
-54,-23,30,1094,4236,258834
-68,-7,81,1134,4241,258813
-69,5,23,1166,4187,258800
-48,11,81,1068,4138,258852
-88,63,138,1112,4225,258892
-58,156,43,1097,4192,258700
-66,225,24,1111,4187,258788
-106,189,70,1094,4247,258782
-69,107,-26,1065,4219,258821
-45,96,43,1099,4157,258898
-83,124,-50,1112,4235,258842
-48,115,-40,1100,4223,258745
-44,151,92,1174,4246,258914
-36,201,7,1127,4205,258782
-37,267,-29,1133,4280,258647
-48,215,30,1099,4260,258807
3,130,-36,1109,4223,258870
-16,134,-71,1150,4231,258855
-30,119,-68,1065,4253,258864
-11,56,-9,1082,4246,258803
-4,51,63,1096,4236,258721
8,84,61,1181,4251,258798
3,100,-44,1233,4286,258800
27,64,-111,1158,4221,258696
27,30,-25,1097,4192,258656
45,5,206,1089,4218,258757
51,-1,188,1126,4237,258834
42,45,-45,1131,4221,258789
7,93,-218,1172,4165,258769
32,110,-97,1138,4254,258789
72,119,250,1094,4252,258821
56,95,150,1145,4194,258838
54,64,-12,1095,4217,258760
54,31,34,1079,4251,258694
84,81,-12,1099,4226,258737
46,151,44,1128,4197,258772
51,138,64,1113,4220,258856
43,126,61,1180,4100,258830
45,181,180,1188,4116,258857
37,169,72,1150,4104,258876
-2,98,-117,1149,4201,258816
29,75,62,1086,4245,258832
30,35,81,1135,4207,258944
10,30,30,1204,4199,258755
12,109,78,1088,4174,258846
-23,121,-100,1090,4131,258853
-11,118,46,1109,4090,258739
-37,68,68,1095,4168,258814
-50,58,-67,1027,4124,258804
-53,37,-37,1073,4073,258726
-60,-47,142,1047,4132,258899
-62,-67,99,1116,4216,258964
-41,2,27,1120,4241,258760
-126,67,-56,1090,4259,258816
-86,103,-65,1051,4234,258762
-118,85,-12,1072,4231,258782
-98,42,-90,1009,4236,258845
-81,41,-55,1123,4187,258779
-95,9,-38,1133,4229,258751
-56,-9,23,1154,4183,258759
-86,-12,32,1097,4118,258739
-63,58,26,1117,4164,258735
-80,96,-46,1130,4248,258876
-48,123,9,1175,4265,258917
-17,110,28,1157,4257,258821
-13,74,-30,1122,4201,258810
-37,67,15,1020,4209,258895
-35,25,14,951,4230,258821
-36,38,36,1097,4130,258804
-46,72,43,1108,4131,258829
-30,97,86,1187,4253,258836
-36,79,18,1100,4279,258756
-32,73,130,1051,4201,258790
-50,52,40,1105,4189,258828
-9,83,88,1156,4210,258769
-28,85,167,1128,4164,258806
-51,87,144,1121,4225,258826
-48,122,90,1121,4193,258861
-54,159,96,1073,4234,258782
-70,90,45,1120,4190,258763
-26,26,26,1181,4213,258855
-38,6,-4,1204,4173,258785
-6,-12,-36,1104,4151,258668
-34,20,31,1198,4245,258748
8,58,95,1170,4283,258784
20,153,40,1176,4221,258825
40,210,-4,1106,4223,258726
31,177,16,1101,4238,258812
17,117,19,1101,4244,258809
31,106,-30,1153,4164,258735
32,108,28,1200,4228,258805
10,70,13,1143,4153,258879
0,42,46,1115,4152,258769
-7,71,-42,1130,4164,258700
-2,49,-29,1167,4170,258818
12,-7,-81,1146,4211,258817
39,-72,-80,1065,4205,258754
40,-70,-56,1161,4203,258763
69,-18,-19,1115,4248,258762
109,-14,-3,1026,4271,258857
85,-1,70,1075,4337,258840
63,63,20,1094,4250,258855
73,132,7,1092,4223,258817
48,72,-33,1131,4319,258760
38,-26,-18,1022,4225,258772
7,-27,-22,1069,4229,258849
-12,-8,23,1091,4242,258826
-21,-8,24,1072,4227,258945
-3,18,131,1135,4199,258857
-7,63,67,1132,4282,258841
-54,108,-52,1175,4274,258905
-29,96,24,1221,4193,258899
-32,16,-102,1099,4263,258765
13,19,-99,1083,4256,258764
6,77,3,1130,4177,258838
29,79,-3,1113,4238,258845
54,98,64,1055,4265,258768
29,160,53,1144,4257,258898
16,170,-7,1111,4174,258787
27,131,1,1147,4186,258864
-24,48,50,1151,4199,258841
1,-15,-17,1090,4175,258750
-23,-29,15,1090,4152,258853
-36,-44,30,1086,4215,258842
-18,-27,71,1155,4157,258888
-37,26,83,1064,4206,258864
-18,98,5,1118,4206,258724
-7,90,-38,1117,4201,258796
-17,71,-17,1113,4257,258793
6,56,-35,1130,4146,258740
6,71,-10,1094,4157,258859
31,87,56,1046,4207,258879
37,117,68,1109,4290,258772
38,141,83,1092,4283,258837
3,148,98,1085,4264,258744
43,94,40,1133,4224,258779
28,51,-22,1164,4169,258855
23,61,36,1131,4219,258754
29,37,-23,1104,4176,258803
45,52,62,1132,4159,258812
17,92,93,1208,4147,258773
3,145,39,1147,4186,258763
34,171,84,1141,4218,258826
-3,132,-27,1140,4169,258903
-5,115,-74,1100,4197,258843
11,97,17,1120,4209,258795
11,70,-58,1124,4241,258824
53,53,41,1176,4151,258762
16,73,104,1134,4165,258755
15,69,-33,1170,4225,258833
29,81,19,1041,4149,258744
9,6,26,1130,4202,258764
-6,-14,-87,1139,4141,258772
-60,-5,-16,1126,4126,258721
-61,-68,-46,1188,4181,258819
-55,-93,20,1113,4196,258761
-92,-10,110,1117,4153,258732
-101,53,-18,1197,4294,258780
-42,66,38,1189,4250,258825
-96,51,105,1163,4248,258809
-65,55,-71,1121,4301,258725
-74,70,-31,1117,4228,258730
-66,48,41,1141,4200,258794
-57,22,50,1189,4210,258883
-99,83,94,1197,4231,258816
-102,141,82,1171,4291,258829
-106,132,50,1089,4230,258860
-99,91,28,1133,4213,258805
-126,58,-11,1022,4275,258829
-107,60,-36,1139,4238,258777
-105,73,17,1154,4248,258807
-93,46,63,1101,4208,258872
-117,67,170,1048,4132,258774
-125,106,201,1074,4178,258778
-115,129,94,1076,4246,258801
-94,97,119,1123,4153,258840
-121,43,84,1082,4228,258898
-128,36,-2,1142,4229,258752
-102,61,61,1174,4240,258762
-117,52,126,1148,4238,258806
-81,49,112,1126,4226,258756
-81,125,137,1135,4223,258778
-75,190,76,1093,4198,258770
-42,146,90,1143,4240,258815
-33,67,50,1144,4227,258834
-30,63,31,1162,4212,258831
-19,74,14,1086,4209,258777
-6,77,56,1182,4208,258827
8,98,135,1145,4189,258851
-5,174,106,1054,4230,258935
-17,205,20,1108,4290,258945
-20,158,43,1136,4230,258769
-11,76,3,1140,4144,258796
-53,59,-40,1069,4168,258854
-21,67,-30,1084,4184,258747
-28,43,27,1167,4247,258771
-70,52,88,1172,4255,258818
-58,80,39,1097,4176,258915
-37,103,34,1153,4200,258810
-53,112,15,1164,4273,258754
-64,95,-27,1198,4296,258787
-68,74,-54,1192,4217,258828
-49,48,1,1139,4195,258814
-78,84,22,1096,4163,258884
-62,104,67,1120,4198,258882
-74,83,61,1152,4225,258878
-56,116,79,1140,4176,258801
-44,144,67,1139,4218,258835
-52,98,-55,1089,4191,258818
-57,68,-3,1146,4173,258809
-11,60,9,1158,4156,258816
-19,83,48,1212,4213,258879
-44,119,114,1079,4279,258776
-19,134,59,1113,4268,258728
-42,148,81,1059,4190,258833
-28,150,39,1127,4227,258899
-55,141,-93,1106,4250,258816
-43,82,-71,1116,4179,258793
-20,36,31,1066,4193,258874
-51,88,18,1078,4136,258787
-42,155,75,1141,4206,258761
-34,138,53,1168,4291,258849
-15,140,50,1147,4184,258749
-14,153,32,1137,4201,258837
-22,121,-46,1156,4260,258768
-15,101,-35,1050,4243,258703
-6,91,22,1026,4258,258796
0,80,15,1127,4223,258911
-9,82,65,1125,4200,258868
7,116,99,1055,4260,258662
21,107,59,1053,4206,258810
23,66,54,1151,4187,258708
-36,27,29,1121,4187,258710
-20,24,-19,1088,4308,258778
12,-11,14,1175,4295,258792
-17,-35,42,1138,4233,258772
-16,7,81,1102,4210,258773
-3,43,108,1154,4221,258892
7,47,30,1138,4161,258925
24,50,4,1084,4173,258852
7,45,60,1072,4200,258799
24,30,-51,1116,4210,258791
23,48,-89,1107,4205,258787
-5,80,39,1122,4242,258805
1,95,20,1179,4172,258838
51,145,0,1078,4163,258752
19,171,44,1157,4149,258800
24,107,-20,1125,4212,258822
21,61,-51,1059,4184,258842
26,16,-71,1031,4219,258820
47,-13,-65,1125,4226,258826
19,-16,-2,1115,4204,258833
16,5,-16,1121,4229,258933
58,57,49,1104,4219,258965
55,88,62,1097,4202,258924
53,55,-50,1126,4248,258746
62,27,-26,1165,4235,258775
44,-9,17,1091,4202,258925
36,-11,-58,1142,4235,258832
25,-19,9,1121,4205,258769
-22,-4,90,1128,4146,258866
15,52,57,1047,4124,258824
2,119,28,1075,4207,258845
-49,100,-11,1077,4294,258847
-45,63,-18,1146,4251,258832
-62,55,9,1139,4186,258869
-74,61,4,1178,4190,258852
-106,69,70,1106,4235,258863
-106,97,125,1077,4238,258884
-96,159,104,1047,4188,258866
-100,192,99,1162,4256,258936
-113,182,45,1180,4243,258961
-99,124,-50,1126,4219,258842
-93,104,-49,1136,4257,258868
-102,84,43,1099,4244,258733
-113,67,21,1147,4217,258803
-99,72,75,1125,4222,258729
-37,68,137,1073,4248,258687
-57,86,118,1153,4173,258843
-70,120,57,1171,4164,258825
-47,101,48,1119,4237,258801
-28,32,20,1129,4195,258874
-49,30,94,1116,4199,258830
-35,19,30,1101,4261,258866
-13,28,61,1093,4261,258856
16,43,97,1136,4263,258830
33,82,94,1157,4182,258835
27,83,20,1126,4265,258798
38,33,-66,1144,4235,258898
60,-20,-66,1113,4217,258838
-4,10,-25,1085,4232,258864
28,46,-46,1119,4209,258886
33,78,-5,1129,4183,258815
68,101,79,1048,4205,258848
105,94,13,1098,4177,258865
49,116,-20,1186,4194,258814
56,89,-59,1148,4223,258706
87,38,-92,1086,4213,258761
57,25,-60,1099,4289,258797
46,58,-40,1033,4191,258826
48,74,-42,1070,4206,258810
61,48,105,1143,4204,258762
42,83,39,1090,4100,258890
63,108,-53,1143,4202,258822
51,39,5,1079,4293,258944
29,-47,-22,1033,4215,258849
38,-25,-8,1162,4213,258836
9,-36,57,1167,4279,258893
-16,-45,77,1104,4199,258789
28,26,111,1162,4262,258806
14,43,37,1124,4271,258853
29,17,-6,1105,4201,258755
14,-4,44,1158,4272,258784
-31,-8,-65,1090,4207,258906
4,9,-33,1099,4213,258720
-31,20,78,1107,4288,258749
-22,84,82,1141,4208,258723
3,156,48,1105,4243,258718
-3,178,87,1109,4234,258818
-1,122,32,1075,4202,258813
31,63,-35,1064,4198,258814
-13,16,-71,1145,4222,258707
-38,-19,-75,1131,4198,258783
-4,3,-55,1127,4267,258846
-13,69,18,1093,4292,258749
-5,129,25,1108,4198,258769
27,147,18,1077,4216,258881
14,109,41,1182,4230,258813
-3,49,-16,1209,4234,258755
-9,24,-49,1132,4240,258760
-35,-5,-36,1099,4242,258786
-68,-35,0,1133,4230,258864
-43,-17,92,1149,4224,258809
-65,57,28,1152,4202,258860
-36,103,14,1087,4274,258855
-48,64,-8,1060,4298,258891
-24,-6,-36,1099,4248,258816
-31,24,-114,1112,4224,258725
7,18,-66,1132,4283,258712
-44,6,-29,1095,4231,258703
15,47,105,1093,4234,258707
8,141,85,1142,4194,258855
17,179,11,1146,4219,258764
4,173,74,1102,4192,258828
41,72,-9,1086,4227,258762
15,40,-84,1070,4236,258888
-23,41,-7,1049,4234,258928
-32,12,-49,1131,4255,258843
14,6,3,1074,4224,258868
17,71,155,1095,4193,258798
27,126,18,1063,4203,258776
69,124,15,1139,4222,258781
72,45,44,1178,4249,258787
85,27,8,1142,4184,258830
86,81,73,1124,4204,258872
58,111,48,1068,4186,258864
65,90,102,1107,4274,258756
63,110,171,1089,4248,258740
33,158,52,1156,4284,258763
26,148,-10,1156,4225,258897
14,66,104,1104,4172,258814
-10,-38,-4,1095,4213,258841
-42,-35,-8,1166,4176,258760
-98,-29,101,1085,4289,258768
-71,-65,57,1122,4217,258773
-77,11,53,1118,4197,258826
-68,96,109,1084,4279,258829
-56,119,-54,1095,4237,258797
-42,111,-23,1138,4186,258830
-75,97,-15,1204,4240,258781
-106,76,-43,1142,4237,258761
-110,97,33,1102,4153,258789
-128,130,112,1120,4179,258775
-126,152,55,1067,4235,258858
-139,193,137,1080,4145,258877
-153,183,81,1131,4216,258846
-115,123,-5,1126,4250,258759
-150,85,-8,1111,4204,258830
-146,49,19,1111,4204,258773
-145,69,6,1107,4241,258756
-146,129,106,1134,4246,258862
-116,159,74,1076,4216,258832
-103,170,164,1085,4220,258796
-70,176,82,1123,4179,258737
-78,160,6,1107,4213,258838
-84,90,53,1088,4162,258789
-85,33,19,1060,4169,258728
-99,68,30,1082,4250,258861
-97,107,107,1089,4340,258850
-57,102,83,1051,4273,258797
-81,129,104,1061,4235,258709
-50,121,63,1064,4206,258776
-30,74,5,1085,4252,258636
-83,77,-53,1112,4202,258773
-88,81,4,1113,4227,258755
-73,77,30,1149,4226,258834
-81,126,148,1104,4205,258867
-91,187,73,1123,4264,258811
-81,217,39,1105,4286,258753
-48,158,92,1099,4300,258778
-54,118,36,1189,4247,258847
-76,106,14,1130,4202,258731
-64,45,80,1055,4324,258828
-75,1,99,1078,4321,258814
-97,68,97,1075,4208,258683
-104,172,93,1087,4159,258781
-65,161,82,1170,4151,258867
-70,121,30,1169,4195,258818
-75,126,40,1105,4217,258844
-50,75,-46,1138,4237,258882
-88,4,9,1080,4285,258911
-90,-38,89,1115,4239,258814
-77,-18,184,1100,4226,258880
-65,23,110,1101,4312,258929
-20,63,166,1114,4238,258827
0,50,43,1154,4240,258818
-16,5,-56,1145,4181,258823
-31,-8,-62,1110,4191,258812
-3,-18,60,1128,4169,258803
-4,-19,50,1146,4159,258863
-29,16,161,1091,4187,258886
-17,67,174,1176,4242,258807
-45,90,5,1164,4239,258818
-2,86,-93,1083,4224,258770
-11,67,4,1160,4234,258868
-26,40,-75,1238,4148,258733
-28,38,-1,1155,4132,258824
-54,43,112,1066,4224,258795
-65,62,21,1121,4246,258753
-77,156,11,1085,4242,258816
-84,183,51,1125,4209,258796
-50,161,34,1199,4181,258674
-21,143,25,1135,4199,258828
-58,89,-8,1149,4138,258938
-79,52,-58,1102,4185,258890
-90,70,4,1084,4167,258811
-81,94,23,1082,4154,258895
-33,116,38,1092,4154,258858
-53,149,182,1193,4140,258758
14,142,-24,1128,4181,258752
25,114,-110,1126,4218,258725
9,37,-65,1151,4205,258759
43,21,-42,1068,4184,258693
21,49,15,1112,4197,258797
8,93,108,1105,4239,258821
40,90,99,1085,4247,258857
59,155,15,1091,4183,258903
75,207,46,1089,4179,258846
88,158,-85,1119,4240,258727
69,119,-56,1137,4183,258785
82,88,-58,1086,4163,258788
74,84,-20,1129,4228,258761
50,119,43,1162,4192,258857
80,157,-54,1117,4189,258848
98,176,-5,1133,4189,258855
70,164,9,1108,4236,258911
96,144,-95,1107,4227,258809
38,105,-74,1158,4214,258712
68,76,23,1127,4279,258821
32,70,18,1138,4236,258916
-12,121,18,1116,4269,258850
-3,130,-11,1131,4220,258744
35,90,-14,1091,4276,258876
35,81,52,1085,4278,258782
42,37,-40,1151,4285,258800
22,-33,-94,1101,4241,258822
-17,-77,32,1127,4181,258870
-12,-111,83,1128,4160,258856
-75,-58,71,1131,4223,258757
-48,-7,124,1098,4265,258713
-54,4,80,1148,4256,258843
2,4,60,1138,4197,258681
-15,-21,-85,1104,4248,258835
-30,-61,-86,1092,4227,258820
11,-114,11,1124,4176,258800
22,-138,57,1107,4277,258743
-22,-80,92,1158,4293,258713
-41,-13,116,1114,4301,258778
32,25,48,1113,4224,258670
25,83,22,1166,4246,258768
20,94,-42,1153,4255,258814
52,41,-103,1134,4195,258925
43,12,-83,1062,4198,258660
22,26,17,1156,4172,258791
-1,61,-2,1157,4189,258841
-6,98,88,1112,4206,258864
26,129,94,1155,4169,258791
36,128,53,1087,4202,258832
38,104,14,1110,4252,258805
29,81,-60,1154,4241,258777
35,50,-49,1171,4182,258843
20,39,86,1159,4176,258795
18,61,52,1120,4245,258861
25,132,45,1091,4169,258791
5,152,69,1047,4141,258753
18,110,-39,1058,4168,258664
29,85,-40,1095,4233,258864
8,73,-55,1155,4181,258957
20,37,-100,1190,4192,258879
-25,34,-20,1175,4249,258834
-47,87,23,1135,4210,258898
-52,159,-6,1067,4223,258808
1,187,66,1132,4214,258762
-14,182,24,1127,4150,258832
12,136,-35,1125,4254,258714
-5,89,-43,1188,4231,258703
-12,52,-56,1180,4252,258741
-13,74,0,1105,4208,258773
-36,108,50,1052,4243,258775
-8,128,35,1041,4198,258826
16,161,79,1084,4194,258898
21,141,47,1165,4260,258796
40,87,31,1159,4150,258790
60,38,-11,1100,4156,258715
33,-17,12,1124,4208,258794
17,-16,33,1099,4146,258784
2,-27,117,1123,4159,258829
-8,-15,110,1074,4218,258796
-16,10,132,1108,4100,258834
-18,5,63,1142,4214,258953
-4,-28,-9,1188,4150,258830
-7,-80,-22,1065,4155,258792
-22,-116,-15,1172,4181,258775
-75,-120,4,1160,4144,258825
-78,-106,15,1084,4176,258780
-65,-84,101,1127,4218,258874
-70,-22,61,1036,4218,258833
-78,35,-14,1089,4224,258790
-57,12,-16,1135,4229,258802
-61,-53,-39,1105,4186,258878
-62,-65,-34,1118,4181,258803
-99,-18,-2,1108,4181,258873
-100,31,70,1124,4245,258939
-71,44,86,1114,4150,258822
-101,103,94,1175,4198,258777
-81,148,-6,1167,4226,258813
-35,106,1,1065,4251,258893
-12,7,0,1072,4188,258886
-13,-25,-3,1151,4212,258839
-41,42,4,1159,4192,258707
-9,66,91,1089,4286,258872
0,51,62,1061,4261,258823
2,103,123,1030,4207,258766
35,110,33,1055,4266,258800
25,77,2,1137,4239,258860
67,17,35,1164,4190,258855
76,-15,0,1097,4175,258821
45,-1,-36,1164,4138,258822
6,52,117,1144,4191,258911
42,108,50,1084,4149,258873
41,161,0,1091,4214,258871
1,184,16,1127,4299,258718
42,186,-79,1154,4282,258789
51,175,-96,1143,4254,258789
50,132,-131,1191,4221,258830
19,146,-4,1161,4203,258863
-17,175,-3,1115,4203,258906
0,234,-23,1094,4180,258833
-13,252,52,1142,4139,258944
-40,249,-40,1104,4242,258937
27,223,-76,1115,4233,258736
37,188,-25,1184,4243,258798
-16,115,-45,1147,4207,258857
-6,84,-1,1100,4275,258880
-72,123,104,1122,4236,258788
-64,152,22,1154,4274,258762
-43,175,59,1060,4290,258791
-61,163,95,1068,4207,258943
-21,115,-58,1095,4135,258842
-31,96,17,1070,4236,258837
-48,6,6,1087,4254,258800
-53,-6,86,1112,4166,258756
-76,39,155,1077,4235,258874
-68,64,106,1068,4179,258873
-90,90,118,1072,4213,258843
-70,48,100,1100,4217,258812
-63,9,82,1120,4257,258794
-36,-13,-5,1147,4268,258833
-79,1,32,1151,4223,258865
-88,-29,56,1138,4229,258848
-85,-6,165,1148,4229,258863
-90,65,210,1174,4270,258850
-111,111,101,1081,4297,258791
-91,101,226,1151,4206,258766
-66,46,152,1102,4217,258846
-46,46,16,1063,4212,258800
-31,56,71,1086,4174,258883
-93,13,114,1062,4163,258907
-74,33,79,1076,4174,258796
-57,99,111,1164,4222,258796
-138,116,76,1166,4217,258840
-120,107,-5,1094,4177,258826
-72,63,2,1060,4213,258826
-83,-3,-27,1127,4181,258985
-93,-32,-89,1093,4188,258830
-104,-10,38,1115,4164,258869
-110,-5,76,1083,4248,258779
-148,32,88,1163,4224,258841
-157,98,129,1230,4175,258790
-150,100,83,1140,4154,258796
-94,41,30,1058,4191,258680
-94,17,29,1113,4251,258882
-119,30,-93,1145,4265,258920
-112,89,18,1188,4235,258810
-125,120,63,1181,4162,258779
-59,141,-6,1114,4206,258751
-87,246,99,1142,4178,258765
-61,268,30,1132,4235,258763
-8,206,-51,1116,4209,258859
2,136,80,1192,4208,258862
-2,95,-38,1185,4152,258868
-20,142,19,1174,4188,258791
-44,175,125,1113,4282,258761
-76,166,46,1085,4237,258851
-82,210,72,1141,4237,258866
-110,234,106,1112,4236,258933
-75,195,-37,1144,4220,258839
-58,96,-16,1168,4208,258824
-110,34,34,1120,4194,258746
-71,21,8,1046,4182,258761
-94,56,142,1058,4172,258874
-100,20,80,1073,4180,258826
-92,56,108,1118,4184,258819
-57,120,176,1172,4208,258966
-13,89,13,1104,4163,258849
-13,69,44,1122,4226,258837
-5,24,128,1145,4231,258933
-13,12,88,1101,4172,258896
-18,75,122,1116,4224,258849
-63,96,145,1101,4282,258766
-57,108,38,1003,4229,258703
-20,118,62,1099,4226,258797
-17,62,-8,1107,4170,258841
-8,15,-107,1079,4167,258810
27,12,-7,1185,4147,258863
36,-22,-63,1144,4214,258899
11,5,-34,1139,4184,258743
31,42,49,1107,4178,258773
18,44,-57,1089,4185,258809
39,49,-7,1133,4194,258809
65,50,-54,1114,4247,258922
46,39,-166,1152,4216,258893
50,14,-87,1119,4187,258833
35,-17,23,1150,4206,258887
63,2,-45,1116,4157,258731
-15,116,59,1176,4200,258830
-43,138,108,1149,4221,258768
-9,90,-15,1089,4250,258743
11,76,21,1147,4212,258771
17,70,-81,987,4220,258843
17,49,-69,1041,4238,258848
57,48,29,1132,4196,258749
49,60,41,1046,4210,258882
25,130,47,1073,4226,258900
27,168,81,1133,4214,258854
12,177,60,1052,4237,258826
89,150,15,1117,4217,258774
44,141,-43,1160,4280,258779
56,127,-78,1127,4216,258874
80,109,-13,1089,4197,258815
42,84,34,1060,4207,258758
22,97,-32,1141,4115,258790
-3,168,45,1127,4208,258761
26,129,-3,1211,4220,258910
41,88,-53,1222,4215,258782
58,95,-14,1186,4256,258785
44,88,-80,1107,4244,258755
38,71,-18,1146,4216,258805
46,84,79,1152,4279,258845
12,112,-9,1136,4208,258812
29,147,-6,1056,4205,258914
9,123,76,1092,4238,258764
49,37,-93,1140,4159,258817
31,18,-61,1143,4268,258792
41,21,11,1108,4220,258766
43,14,-79,1060,4185,258854
11,17,48,1048,4252,258790
-3,4,74,1145,4217,258838
-39,30,-11,1173,4207,258780
-1,61,-1,1106,4257,258754
9,2,-43,1137,4315,258868
13,-42,-70,1107,4179,258843
24,-43,-16,1146,4193,258751
0,-12,-16,1084,4178,258745
17,3,37,1190,4217,258796
-15,72,84,1173,4210,258810
-15,101,69,1117,4235,258856
2,104,71,1169,4285,258832
9,62,35,1120,4199,258804
32,31,-83,1090,4158,258783
33,9,25,1085,4221,258820
67,3,70,1070,4110,258799
33,34,56,1105,4215,258774
22,50,111,1077,4254,258809
-4,26,94,1139,4183,258831
10,28,35,1084,4170,258757
29,37,34,1061,4159,258810
28,-2,-46,1120,4179,258774
45,3,-25,1151,4213,258727
69,59,54,1116,4227,258737
57,70,36,1128,4227,258831
42,83,99,1117,4205,258881
23,88,96,1101,4155,258761
9,100,21,1069,4187,258837
31,100,2,1073,4197,258783
-1,63,-29,1146,4151,258786
-10,35,-27,1160,4183,258794
-13,57,79,1068,4189,258850
-36,78,41,1118,4234,259032
-56,99,59,1077,4245,258790
-62,85,104,1061,4293,258804
-62,83,27,1025,4274,258865
-53,103,5,1123,4255,258766
-69,79,-47,1128,4239,258777
-57,29,-74,1096,4218,258819
-50,67,-16,1054,4104,258817
-79,123,50,1155,4178,258908
-87,137,11,1146,4262,258868
-89,146,68,1079,4210,258824
-80,152,70,1160,4219,258761
-76,150,-53,1065,4190,258819
-70,127,-41,1104,4233,258787
-78,75,-10,1128,4196,258870
-72,79,7,1055,4201,258980
-55,127,84,1149,4228,258886
-83,108,79,1087,4227,258859
-96,78,41,1074,4199,258864
-60,74,113,1049,4238,258793
-55,26,-28,1112,4192,258844
-47,18,-46,1196,4179,258812
-28,-3,-18,1099,4282,258889
-39,-14,27,1117,4176,258886
-34,27,70,1090,4167,258872
-48,59,99,1054,4194,258795
-43,47,56,1121,4231,258857
-28,28,77,1074,4238,258807
-18,23,-26,1078,4219,258782
-52,21,-69,1135,4240,258852
-50,16,4,1151,4239,258750
-13,9,50,1090,4183,258849
-18,26,57,1030,4176,258805
-43,71,176,1095,4225,258921
-12,42,56,1064,4198,258909
4,41,39,1067,4214,258865
-30,42,60,1111,4166,258841
-16,14,-109,1128,4234,258753
22,-12,-40,1094,4243,258697
-12,-9,62,1017,4179,258846
2,1,19,1103,4246,258862
15,43,107,1185,4195,258797
10,63,119,1170,4241,258803
16,53,17,1168,4284,258825
32,28,54,1113,4262,258857
2,0,-29,1075,4255,258770
24,17,-88,1069,4241,258830
-16,50,40,1204,4248,258804
-32,48,68,1211,4223,258842
-19,90,70,1099,4198,258821
-24,150,97,1101,4261,258815
-18,139,4,1116,4232,258866
-3,100,-12,1057,4118,258751
14,90,16,1078,4178,258912
20,73,-75,1171,4276,258977
-2,97,39,1159,4209,258834
1,85,103,1104,4235,258832
-12,99,25,1117,4205,258756
1,160,108,1156,4156,258687
-17,161,33,1110,4156,258842
-10,132,-88,1085,4165,258603
-5,129,2,1105,4193,258706
-10,84,-45,1092,4233,258806
-26,131,-11,1228,4220,258722
-44,173,168,1160,4267,258847
-44,140,81,1111,4229,258800
-48,140,85,1053,4163,258733
-37,151,102,1128,4097,258764
-93,136,-111,1094,4171,258769
-70,86,-30,1117,4265,258770
-75,55,-38,1105,4170,258799
-92,85,-85,1120,4184,258715
-118,114,32,1071,4235,258873
-92,64,83,1132,4221,258717
-93,28,-29,1130,4205,258821
-75,48,99,1078,4201,258847
-75,6,-28,1118,4285,258879
-36,-51,-42,1092,4209,258794
-33,-47,82,1138,4162,258836
-3,-58,35,1169,4149,258807
-45,2,129,1114,4176,258915
-28,7,189,1049,4189,258867
5,1,85,1063,4236,258745
-13,25,117,1109,4246,258845
-45,48,46,1169,4256,258819
5,20,-124,1136,4203,258772
6,71,9,1156,4185,258788
-47,72,52,1172,4176,258753
-36,113,-13,1088,4183,258815
-40,173,134,1098,4214,258789
-27,157,32,1113,4278,258803
-26,104,21,1140,4282,258796
-62,104,24,1166,4273,258765
-54,86,-115,1110,4237,258873
-41,25,-24,1085,4223,258879
-90,8,75,1102,4188,258771
-110,47,31,1057,4210,258834
-84,89,84,1076,4266,258805
-99,76,170,1019,4226,258840
-87,58,61,1087,4265,258701
-68,77,84,1112,4253,258710
-92,55,28,1121,4245,258874
-68,51,23,1188,4218,258799
-77,79,105,1162,4213,258863
-79,81,154,1188,4180,258868
-58,121,142,1088,4225,258898
-43,133,173,1037,4221,258778
-35,93,60,1114,4250,258764
-17,54,3,1180,4202,258714
-48,52,36,1169,4201,258854
-46,50,-49,1114,4162,258839
-56,76,2,1122,4203,258828
-113,139,97,1124,4217,258713
-54,173,96,1124,4200,258782
-70,173,81,1150,4237,258854
-72,168,30,1123,4259,258836
-67,130,-7,1229,4235,258813
-34,124,-10,1200,4179,258794
-79,112,-45,1119,4264,258735
-87,106,-34,1114,4273,258801
-87,100,128,1162,4221,258818
-65,110,77,1119,4191,258845
-54,148,52,1050,4099,258872
-24,159,36,1167,4250,258832
-23,100,0,1135,4266,258854
-40,70,-51,1135,4245,258807
-61,83,36,1137,4264,258738
-85,63,-27,1142,4262,258866
-54,55,118,1168,4161,258819
-14,25,154,1112,4204,258759
-50,58,64,1133,4184,258663
-36,94,10,1152,4224,258692
-62,57,-37,1108,4219,258785
-13,-33,-107,1123,4184,258833
-62,17,-51,1203,4199,258957
-116,71,-67,1096,4159,258796
-69,73,-26,1100,4219,258743
-16,45,172,1129,4185,258807
-47,72,49,1119,4216,258877
-20,117,43,1127,4219,258819
-40,55,58,1093,4211,258838
-5,-6,-66,1110,4253,258896
38,70,27,1103,4202,258804
-68,115,26,1125,4210,258888
-3,133,111,1041,4233,258808
48,177,190,1104,4208,258849
39,189,74,1143,4291,258897
49,143,34,1121,4269,258853
55,84,82,1127,4255,258831
84,-11,-107,1143,4161,258897
94,-25,-64,1083,4171,258870
29,-23,33,1114,4183,258873
89,-20,-6,1091,4222,258856
75,-11,81,1158,4225,258842
58,-17,103,1118,4229,258771
55,-21,-20,1096,4194,258702
65,5,30,1186,4228,258734
70,-18,-64,1146,4199,258822
34,-32,-122,1085,4200,258806
-14,29,9,1100,4156,258924
-33,121,-25,1130,4177,258820
26,156,-17,1127,4221,258832
1,126,34,1154,4241,258832
8,101,-5,1062,4210,258841
30,130,-99,1098,4224,258808
-2,117,-119,1056,4194,258848
-24,66,-136,1041,4212,258919
-22,112,-34,1120,4216,258885
0,185,22,1146,4178,258798
6,189,41,1151,4187,258849
18,211,81,1104,4214,258794
40,209,32,1041,4235,258801
72,193,-1,1110,4221,258733
59,108,-73,1138,4180,258692
88,70,-34,1104,4201,258689
56,68,-21,1153,4158,258813
73,87,59,1171,4242,258874
62,96,50,1149,4237,258767
62,104,58,1122,4220,258806
58,82,32,1106,4209,258810
97,41,-46,1116,4179,258850
87,3,-107,1127,4248,258835
60,-15,-92,1152,4250,258829
35,-5,-19,1183,4269,258915
35,22,48,1179,4235,258892
50,76,119,1109,4268,258845
14,109,49,1032,4258,258747
69,91,43,1077,4209,258776
85,35,26,1111,4195,258852
59,13,-94,1055,4197,258799
56,18,-63,1119,4172,258757
9,5,21,1190,4207,258782
8,22,18,1147,4280,258761
58,101,117,1147,4251,258841
-33,156,60,1121,4227,258796
27,127,46,1159,4306,258801
70,122,50,1163,4208,258806
50,69,-67,1100,4169,258752
71,62,-69,1123,4209,258762
38,55,32,1206,4254,258787
49,48,47,1198,4214,258819
22,61,105,1151,4188,258855
-9,69,98,1139,4183,258884
15,47,35,1105,4210,258790
10,-21,-18,1111,4182,258786
-8,-39,-65,1081,4147,258794
-37,-5,-136,1143,4151,258791
-42,7,-65,1102,4207,258820
-46,-4,-10,1119,4210,258824
-11,14,97,1126,4196,258775
-45,55,57,1176,4167,258894
-1,24,-8,1115,4222,258913
35,-32,23,1079,4206,258835
31,-63,-88,1116,4163,258788
0,-27,-134,1145,4212,258731
-37,-5,-31,1065,4256,258787
-24,3,35,1089,4184,258825
-58,96,53,1151,4264,258853
-74,180,110,1110,4242,258774
-72,179,33,1119,4223,258826
-19,158,41,1216,4158,258736
-41,138,-19,1159,4255,258764
-72,107,-91,1077,4234,258841
-96,116,19,1116,4210,258814
-87,118,122,1082,4164,258871
-101,140,92,1149,4207,258822
-134,162,134,1125,4205,258776
-104,144,150,1115,4214,258850
-90,113,6,1115,4250,258882
-55,87,50,1162,4285,258848
-106,58,3,1152,4232,258797
-116,65,16,1128,4203,258804
-109,95,143,1192,4289,258845
-126,70,144,1132,4181,258839
-136,61,125,1107,4211,258777
-101,63,144,1165,4260,258759
-64,11,25,1098,4239,258893
-16,-25,-65,1134,4193,258833
-46,-33,16,1117,4267,258771
-73,-41,-39,1005,4250,258764
-27,46,50,1074,4219,258817
-43,110,154,1148,4270,258847
-54,101,31,1179,4266,258933
-36,120,94,1120,4183,258839
-17,110,61,1129,4251,258865
-9,57,-120,1028,4231,258768
-26,50,-38,1100,4183,258810
-27,45,-28,1107,4239,258807
-69,90,-33,1126,4159,258744
-62,142,97,1223,4241,258742
-69,126,89,1172,4218,258791
-13,99,47,1108,4176,258763
-20,100,97,1082,4223,258669
-35,50,-62,1064,4225,258901
-39,30,-72,1091,4193,258972
-56,33,31,1105,4210,258846
-79,61,16,1090,4271,258868
-79,113,123,1062,4267,258843
-55,109,143,1021,4260,258738
-19,42,14,1110,4245,258707
-5,18,128,1144,4252,258747
-24,-31,-25,1129,4248,258818
-6,-68,-60,1074,4187,258870
-13,-97,72,1027,4240,258876
-57,-49,73,1110,4178,258872
-52,39,85,1054,4245,258803
-68,73,163,1085,4245,258814
-29,55,115,1114,4207,258794
-7,92,48,1096,4257,258720
-29,92,27,1057,4204,258782
-17,39,-6,1154,4145,258780
-26,65,46,1130,4256,258777
-47,104,125,1085,4290,258692
-83,134,79,1152,4218,258764
-69,181,153,1065,4262,258948
-11,166,127,1121,4255,258937
-37,119,114,1107,4204,258812
-34,100,30,1135,4216,258842
-59,97,-45,1140,4265,258828
-54,54,-22,1172,4272,258827
-75,58,147,1176,4260,258794
-102,112,73,1168,4238,258813
-90,143,46,1147,4251,258813
-90,100,116,1177,4231,258717
-55,35,22,1158,4200,258774
-50,18,-38,1105,4217,258835
-51,15,-51,1125,4173,258746
-67,-17,-43,1057,4186,258814
-83,16,29,1067,4261,258819
-85,65,107,1151,4198,258992
-137,112,17,1123,4218,258879
-71,119,40,1080,4205,258811
-72,92,41,1092,4209,258858
-61,73,-68,1113,4134,258846
-71,100,-41,1195,4185,258840
-52,92,-12,1171,4222,258668
-91,84,-73,1090,4198,258723
-94,116,76,1131,4297,258833
-110,143,54,1156,4262,258833
-63,132,-3,1116,4159,258766
-41,133,37,1096,4211,258868
-32,64,-19,1098,4168,258817
-7,46,-36,1134,4190,258736
-16,93,10,1093,4146,258755
-24,93,-7,1165,4200,258761
-46,72,85,1187,4166,258778
-50,91,191,1144,4156,258765
-13,85,57,1147,4227,258784
4,62,80,1162,4213,258881
0,-36,88,1139,4166,258956
28,-63,-64,1119,4154,258856
27,9,53,1171,4214,258822
-19,6,19,1185,4186,258799
-52,-15,45,1121,4148,258794
-24,30,104,1092,4129,258827
-21,82,47,1065,4170,258853
9,44,-25,1085,4216,258762
24,-6,21,1130,4237,258794
19,-31,-49,1050,4226,258793
32,23,48,1118,4191,258790
-34,34,80,1172,4165,258871
-36,68,75,1111,4192,258796
-54,142,109,1111,4231,258831
-1,141,77,1124,4197,258768
1,159,3,1093,4261,258820
14,119,-44,1083,4275,258733
20,73,-42,1087,4231,258754
36,69,5,1078,4210,258798
-3,142,-21,1102,4200,258758
-40,169,30,1152,4258,258730
0,133,68,1134,4268,258669
16,154,76,1182,4254,258786
-4,191,-28,1216,4204,258891
35,129,-40,1083,4219,258862
65,30,-34,1079,4243,258797
51,22,71,1066,4212,258762
38,55,-25,1120,4211,258917
-11,65,29,1075,4178,258814
-31,63,115,1029,4237,258804
5,59,46,1022,4177,258852
-12,90,-23,1117,4187,258790
-1,87,-31,1137,4269,258783
15,58,-87,1114,4241,258773
-4,88,-21,1198,4203,258752
-24,128,-4,1165,4143,258866
-49,192,79,1041,4175,258879
-55,196,87,1088,4229,258878
-38,179,79,1073,4217,258857
-48,163,45,1103,4164,258876
-31,134,-29,1102,4195,258863
7,126,-71,1145,4192,258828
-3,130,-24,1102,4267,258794
-38,136,28,1061,4191,258875
-15,136,60,1100,4197,258894
-22,130,79,1135,4290,258816
-28,94,16,1134,4230,258841
-6,34,29,1136,4199,258817
-10,-28,-25,1141,4227,258893
23,-45,-101,1118,4147,258838
14,-48,34,1137,4189,258736
-6,-38,-32,1115,4179,258735
-10,15,-12,1104,4232,258776
-25,21,102,1115,4230,258821
-21,-1,24,1126,4226,258882
21,8,13,1110,4228,258878
18,-16,11,1134,4286,258838
12,-58,-71,1148,4193,258816
32,-9,3,1146,4144,258860
-9,34,-5,1186,4206,258844
20,66,-23,1122,4182,258843
12,123,95,1140,4234,258929
22,137,6,1197,4227,258909
60,131,-69,1096,4198,258793
76,111,0,1085,4219,258848
71,66,-71,1150,4228,258829
58,91,-56,1136,4138,258818
39,105,44,1090,4255,258673
-9,110,6,1127,4261,258794
7,114,16,1133,4293,258762
-18,111,71,1148,4252,258802
17,40,-21,1158,4207,258826
69,-34,1,1211,4189,258809
58,-60,-15,1114,4218,258716
59,-29,40,1159,4219,258873
26,-2,52,1195,4232,258832
38,15,104,1111,4243,258766
21,57,126,1100,4295,258863
15,95,53,1146,4178,258894
34,68,-4,1063,4156,258850
51,23,-75,1018,4130,258743
56,24,-33,1070,4185,258731
31,40,-55,1086,4240,258875
8,64,-3,1046,4185,258911
2,86,48,1071,4257,258851
-27,110,61,1078,4221,258816
7,141,63,1120,4193,258813
21,142,16,1148,4194,258840
29,112,-47,1078,4159,258796
64,127,-34,1102,4180,258857
16,152,-35,1083,4176,258795
0,194,-22,1062,4202,258907
5,190,42,1131,4219,258846
-14,211,41,1119,4212,258777
4,223,32,1113,4223,258777
9,164,-12,1071,4224,258767
35,76,-45,1147,4131,258773
74,11,-76,1122,4210,258743
44,21,24,1090,4229,258731
31,51,30,1090,4223,258860
38,52,15,1086,4214,258844
-5,44,28,1026,4169,258817
-20,48,50,1091,4148,258759
-18,47,-40,1082,4113,258766
-10,4,-69,1109,4184,258804
10,-36,-93,1137,4170,258857
-14,1,-4,1077,4186,258886
