Vx,Vy,Vz,Ax,Ay,Az
-24,7,109,-529,-53,259817
-18,42,126,-515,-18,259778
-32,75,138,-419,-88,259851
-21,104,236,-479,35,259862
-44,97,293,-467,-69,259868
-55,56,178,-456,-71,259836
-65,9,5,-441,-1,259966
-85,-46,-49,-427,-17,259905
-90,-54,-46,-466,51,259840
-76,-10,-80,-523,-12,259916
-92,50,-31,-457,-20,259966
-75,79,112,-409,-28,259948
-55,47,158,-424,0,259904
-36,19,79,-417,60,259884
-15,9,21,-497,-45,259770
-55,-51,-69,-497,-66,259888
-47,-95,-35,-518,-44,259856
-76,-97,24,-500,-39,259799
-60,-37,87,-422,7,259880
-54,7,177,-466,-3,259875
-39,-6,256,-407,-5,259882
-6,-46,192,-456,-28,259851
-26,-21,101,-483,-48,259796
-20,-43,20,-461,0,259840
-11,-38,110,-448,-10,259828
-17,-27,122,-434,25,259851
34,28,165,-469,-9,259846
55,74,335,-452,-2,259798
64,74,345,-536,10,259878
104,86,155,-506,-16,259833
131,77,-2,-432,-33,259845
102,10,-71,-446,3,259807
117,-13,-11,-453,-10,259780
118,23,-55,-545,53,259846
148,56,-47,-452,9,259840
152,38,137,-445,-49,259815
161,32,173,-475,-18,259868
176,48,-13,-512,14,259854
195,35,-113,-476,-52,259865
165,-23,-19,-468,8,259800
149,-26,-2,-502,-72,259865
140,3,-27,-440,-32,259857
128,16,103,-465,44,259859
127,16,310,-516,-15,259894
131,30,288,-482,-119,259872
146,44,170,-529,-74,259827
125,4,89,-479,-27,259811
91,-40,25,-496,-22,259861
85,-17,24,-452,-28,259771
55,25,43,-460,-45,259872
51,61,142,-459,38,259929
51,83,308,-533,2,259895
29,94,339,-517,-37,259933
38,76,179,-455,23,259890
58,8,51,-544,24,259954
13,-51,8,-488,-30,259904
15,-21,-43,-582,-125,259879
4,10,-88,-503,-49,259824
-1,37,50,-441,-37,259749
-14,67,258,-440,5,259819
-44,88,260,-490,70,259907
-19,57,150,-478,-10,259905
-42,-18,119,-417,-22,259889
-62,-70,46,-493,-6,259884
-61,-94,-7,-448,12,259804
-28,-102,-38,-447,-8,259830
-52,-55,97,-429,-31,259909
-48,-9,179,-442,28,259905
-43,-22,186,-461,22,259923
-62,-63,60,-514,-7,259827
-42,-66,2,-449,-77,259891
-127,-65,-84,-435,10,259849
-65,-106,-123,-522,-34,259852
-64,-94,-100,-435,-37,259785
-62,-39,54,-478,-50,259811
-50,-12,177,-527,-50,259730
-26,-18,144,-446,-40,259800
-22,-12,90,-380,-2,259811
-16,-28,1,-420,-88,259834
-13,-69,-89,-462,-91,259773
-24,-86,-143,-540,-100,259735
-15,-70,-82,-493,-16,259834
5,-25,56,-490,23,259808
45,-2,192,-496,27,259789
50,4,212,-445,-7,259800
81,35,174,-445,-10,259981
84,21,134,-468,-22,259896
66,-1,61,-490,2,259816
91,5,77,-443,-18,259857
68,15,128,-441,-16,259798
75,70,174,-433,8,259848
81,117,358,-457,-125,259917
65,106,412,-473,-74,259862
115,79,229,-433,25,259847
114,72,166,-462,-83,259781
77,36,183,-446,-81,259713
106,44,105,-465,-120,259805
88,56,24,-441,-93,259818
56,85,239,-485,-13,259813
62,101,438,-465,-88,259843
43,105,338,-463,-13,259876
74,129,154,-478,74,259781
40,100,142,-422,47,259778
-10,14,14,-472,-35,259790
24,41,-105,-474,-20,259851
9,46,-108,-389,10,259788
12,48,74,-487,8,259795
9,55,166,-456,2,259840
37,37,119,-492,-36,259915
-13,13,-1,-414,-28,259831
-11,-28,56,-445,-38,259821
-59,-55,-92,-449,-50,259786
-20,-32,-186,-498,-14,259899
-27,-42,-138,-445,-6,259817
-9,33,79,-464,-2,259857
6,72,159,-466,23,259917
22,33,161,-429,41,259864
7,22,179,-455,-10,259827
0,12,164,-487,-12,259818
-27,-13,6,-462,-14,259725
14,-55,-43,-495,35,259759
25,-49,60,-440,-64,259814
13,70,160,-456,-66,259800
60,108,181,-479,-56,259854
25,79,205,-464,-1,259865
33,43,181,-517,-12,259871
19,68,94,-495,-23,259816
23,65,-20,-492,-45,259791
36,25,-119,-449,-2,259820
64,68,-81,-522,-46,259739
47,161,83,-489,-20,259848
66,183,182,-524,19,259856
99,183,147,-567,30,259805
80,164,77,-476,28,259823
52,141,27,-450,-55,259819
16,99,-68,-454,-23,259757
17,70,-133,-509,-23,259863
22,101,-56,-498,-48,259834
9,130,117,-462,35,259819
41,141,221,-459,46,259917
69,153,231,-431,-36,259919
87,157,224,-365,-65,259804
54,147,231,-459,-41,259807
30,95,75,-478,-69,259776
47,73,9,-511,-67,259836
30,84,51,-476,-9,259878
20,125,229,-471,7,259834
35,144,314,-504,18,259861
69,115,260,-496,33,259914
44,98,161,-455,-23,259814
26,84,206,-425,-8,259863
-38,46,100,-395,-18,259826
-2,43,16,-491,-48,259808
-30,46,116,-459,-16,259795
-50,88,371,-419,-37,259821
-62,108,424,-490,5,259791
-41,76,391,-481,-30,259851
-57,43,376,-495,-25,259872
-84,35,331,-523,-26,259861
-117,9,58,-487,-70,259854
-83,9,-36,-482,2,259811
-157,15,52,-429,-55,259822
-154,70,175,-478,-67,259855
-156,112,185,-478,-17,259879
-162,85,163,-492,-22,259810
-185,56,102,-487,-68,259828
-174,35,75,-502,-20,259831
-203,5,-107,-496,-6,259821
-168,14,-229,-448,11,259788
-186,51,-162,-449,18,259884
-195,95,1,-484,20,259857
-195,123,65,-457,23,259835
-182,136,39,-496,-17,259808
-156,115,-4,-489,-33,259789
-211,95,-17,-500,31,259916
-161,55,-182,-488,15,259890
-112,63,-280,-444,55,259907
-86,81,-199,-506,27,259945
-97,116,-63,-466,-27,259884
-48,154,11,-456,1,259859
-61,174,39,-585,-38,259927
-41,179,97,-537,-66,259819
-62,128,65,-455,-32,259796
-55,93,-36,-436,-2,259826
-36,75,-33,-505,-59,259794
-9,79,89,-468,10,259778
15,93,169,-490,-3,259796
58,116,216,-525,18,259740
56,104,336,-496,44,259907
44,110,396,-475,29,259890
53,119,306,-412,24,259828
43,79,150,-474,24,259856
73,46,117,-481,-19,259881
72,77,260,-468,-84,259816
97,113,389,-453,-49,259780
157,116,436,-473,1,259898
168,114,443,-458,-32,259838
125,110,432,-490,48,259948
133,56,340,-452,-40,259803
106,-8,130,-446,-13,259822
71,16,98,-424,-47,259840
83,50,190,-423,-63,259754
75,67,204,-534,35,259782
138,121,231,-470,-38,259777
120,137,234,-427,6,259799
108,126,156,-532,-82,259780
98,114,-4,-489,-42,259798
115,84,-196,-519,4,259827
115,66,-288,-461,-10,259839
73,65,-151,-459,-123,259873
104,100,-41,-477,2,259921
138,160,-130,-516,-48,259915
166,159,-72,-481,61,259813
148,103,-2,-480,20,259876
165,115,-29,-480,-47,259843
141,99,-226,-459,-7,259883
154,107,-191,-409,-47,259877
139,72,-27,-456,-6,259843
109,60,123,-491,-6,259892
155,52,130,-473,-5,259849
191,25,192,-466,28,259842
131,0,268,-433,-37,259860
153,-28,245,-444,-13,259857
169,-97,146,-452,-39,259917
148,-80,108,-474,-34,259793
175,1,192,-461,-9,259840
171,30,222,-509,-43,259746
179,55,243,-448,-50,259871
191,84,300,-413,43,259924
148,83,361,-457,-19,259923
160,23,220,-461,-62,259939
119,-49,16,-461,-25,259853
105,-28,31,-431,30,259771
105,31,88,-449,8,259754
106,68,65,-451,-29,259876
122,31,79,-444,-32,259741
114,13,191,-462,-14,259750
72,26,132,-499,-5,259856
85,0,-8,-486,16,259830
55,-74,-136,-455,19,259842
73,-78,-24,-427,-87,259882
60,-65,-15,-501,-23,259830
109,-36,10,-506,-10,259810
107,-22,66,-464,-91,259885
70,4,157,-477,-78,259933
73,24,107,-500,-34,259900
62,24,26,-415,43,259817
-7,4,-96,-425,26,259854
16,-50,-87,-497,-27,259817
-11,-72,-30,-503,-32,259814
-21,-27,-14,-499,-24,259890
5,5,39,-454,36,259907
-37,-19,94,-494,20,259915
-16,-26,94,-506,-47,259812
-54,-13,-15,-384,-64,259903
-50,-27,-107,-410,48,259860
-48,-65,-63,-464,4,259858
-56,-48,104,-477,-24,259929
-64,-3,102,-548,-9,259939
-25,36,170,-456,-14,259752
-50,33,325,-511,-8,259808
-60,31,409,-521,81,259801
-68,6,238,-399,-52,259814
-112,-73,97,-390,-82,259691
-118,-110,194,-444,-17,259812
-152,-78,284,-469,-20,259810
-156,-27,221,-556,-4,259853
-150,-37,319,-470,-20,259773
-187,-107,441,-408,-23,259815
-204,-133,346,-453,-50,259949
-196,-181,156,-483,-33,259899
-210,-242,75,-495,26,259845
-226,-232,77,-413,-16,259868
-227,-170,0,-444,-50,259802
-170,-111,112,-442,-83,259739
-187,-96,138,-473,40,259873
-168,-82,229,-504,4,259770
-195,-94,136,-466,-81,259841
-187,-97,-16,-461,13,259903
-219,-133,-126,-446,9,259875
-221,-161,-54,-429,-54,259888
-233,-165,-43,-476,0,259881
-194,-125,-93,-486,-17,259809
-173,-89,-14,-460,48,259794
-163,-79,167,-433,-12,259797
-196,-81,105,-466,24,259816
-170,-59,-55,-505,8,259920
-180,-82,-42,-439,25,259972
-193,-110,36,-488,1,259866
-153,-89,103,-489,-70,259747
-131,-43,70,-498,-41,259863
-104,-46,105,-441,-1,259910
-90,-47,221,-508,-52,259867
-96,-25,191,-478,-20,259798
-70,-26,10,-532,-34,259928
-114,-81,-99,-454,-3,259856
-120,-78,51,-507,-80,259810
-120,-67,81,-476,11,259760
-76,-45,68,-509,-74,259887
-39,-45,247,-401,-58,259873
-25,-24,359,-438,-4,259845
-4,14,259,-518,-102,259849
42,-16,192,-521,14,259853
-44,-5,221,-493,-1,259891
-20,11,222,-533,-6,259926
-15,46,175,-509,2,259920
22,39,246,-421,-19,259890
16,61,392,-464,-20,259823
46,87,402,-536,-36,259814
114,89,278,-517,-26,259840
85,32,145,-517,-14,259904
47,21,79,-494,-21,259758
97,-3,40,-425,-109,259775
80,-4,-38,-438,-52,259780
103,38,2,-507,-21,259838
124,97,101,-411,36,259845
144,69,176,-496,12,259808
133,28,-45,-460,-32,259782
179,68,-68,-381,-49,259786
127,29,-198,-454,-23,259767
183,15,-167,-549,48,259790
162,21,-259,-488,59,259971
196,56,-75,-442,-17,259881
169,25,-5,-428,-1,259907
239,41,123,-466,3,259894
185,22,70,-458,-7,259939
247,7,-19,-503,-52,259854
215,-52,-55,-457,19,259822
232,-26,-7,-477,11,259864
238,26,35,-496,29,259821
244,44,56,-443,-42,259850
266,77,212,-441,-11,259893
218,76,298,-470,-4,259969
236,79,245,-489,37,259869
215,67,122,-480,-24,259810
191,72,62,-448,-24,259926
198,76,70,-482,-13,259897
200,98,78,-504,-71,259869
196,149,107,-447,-12,259813
237,191,216,-431,32,259795
216,182,276,-487,-44,259791
212,150,209,-500,-13,259844
229,116,96,-511,-27,259823
163,87,104,-504,-55,259865
129,81,102,-500,-71,259890
134,118,32,-491,-90,259858
159,168,20,-476,-81,259800
143,202,202,-398,52,259779
124,231,318,-451,41,259880
146,255,136,-460,-1,259907
129,248,52,-379,76,259755
44,202,125,-427,-20,259771
34,166,83,-462,-23,259866
40,200,18,-503,11,259892
23,210,97,-463,-53,259854
25,219,305,-548,-17,259859
10,229,233,-523,48,259863
16,248,90,-454,4,259765
-10,261,30,-478,-41,259809
-36,258,-15,-526,-23,259828
-58,237,-149,-499,-15,259843
-59,241,-101,-489,29,259848
-93,249,6,-443,-3,259844
-76,255,111,-479,-55,259850
-70,247,99,-441,-74,259848
-63,237,11,-513,4,259941
-89,210,-75,-470,-42,259913
-119,174,-70,-529,-35,259823
-129,163,-71,-459,-38,259889
-110,161,-50,-428,-13,259769
-127,154,116,-493,-32,259819
-107,163,294,-568,3,259744
-97,136,247,-487,-49,259802
-70,104,157,-442,-39,259838
-99,89,148,-476,-43,259914
-144,55,84,-404,-55,259905
-122,45,-77,-435,-35,259790
-117,77,5,-516,-63,259834
-179,106,188,-525,-2,259734
-135,121,240,-588,22,259793
-145,109,207,-519,-2,259765
-130,80,186,-469,17,259747
-144,23,188,-471,47,259792
-150,-4,83,-527,-24,259868
-149,-3,-18,-445,13,259851
-137,4,12,-466,9,259844
-179,17,150,-431,-33,259823
-157,59,279,-457,-38,259866
-172,105,298,-437,54,259922
-186,116,196,-563,33,259845
-194,88,158,-460,-32,259858
-189,58,177,-535,3,259852
-203,77,70,-508,-37,259861
-165,114,1,-445,-19,260005
-171,96,189,-409,72,259893
-142,93,348,-426,-9,259872
-142,156,248,-423,49,259969
-107,136,109,-449,-1,259865
-141,74,140,-511,-39,259882
-174,59,140,-511,-74,259797
-142,99,-2,-463,-73,259792
-78,120,41,-488,21,259816
-127,109,230,-454,58,259882
-56,185,359,-454,15,259751
-63,159,205,-444,2,259804
-24,97,94,-471,2,259867
-44,56,157,-447,-67,259805
-79,67,72,-469,-24,259828
-35,69,-57,-518,20,259796
-22,56,36,-458,34,259840
-43,87,232,-458,21,259873
40,120,281,-400,-38,259813
89,117,183,-461,-4,259939
83,83,111,-489,-7,259925
110,55,94,-445,-45,259899
75,3,-8,-388,-20,259925
92,-7,-132,-444,0,259873
86,5,-14,-504,4,259808
29,4,142,-411,-26,259879
110,13,203,-451,-50,259902
89,16,166,-474,2,259868
126,17,112,-496,-41,259813
127,3,25,-387,-25,259840
109,-22,-88,-435,-95,259852
128,-43,-235,-451,-72,259812
137,-27,-149,-534,-28,259847
108,-24,-9,-448,0,259838
167,28,173,-525,19,259807
139,16,101,-545,37,259836
184,1,54,-528,-15,259782
229,-58,68,-518,-20,259805
143,-72,3,-489,-56,259818
216,-78,-146,-500,-46,259790
222,-84,-59,-515,-45,259878
185,-119,119,-484,-55,259854
216,-82,194,-476,-59,259756
179,-75,137,-460,-52,259893
179,-100,157,-474,0,259891
161,-114,155,-465,-30,259855
130,-97,77,-433,32,259823
152,-53,-25,-434,-27,259862
145,-19,28,-400,-51,259890
145,30,223,-475,18,259877
180,31,249,-526,1,259961
195,2,218,-524,-6,259896
168,-28,277,-542,-28,259867
129,-56,219,-504,-37,259800
152,-67,68,-514,-61,259926
167,-73,-25,-490,-32,259861
134,-44,65,-503,-39,259804
130,-20,161,-575,4,259789
143,25,193,-443,8,259783
151,44,186,-369,16,259844
124,7,181,-452,36,259831
112,-29,102,-414,-2,259950
100,-36,-20,-411,-40,259860
127,-22,-148,-433,-91,259748
111,-11,-95,-443,-37,259729
92,-8,23,-451,-10,259808
116,40,39,-414,-27,259933
116,49,-56,-376,-17,259921
96,38,-75,-482,-56,259836
79,7,-69,-586,-2,259859
66,-64,-193,-496,-50,259925
108,-51,-238,-475,-4,259721
97,-22,-88,-436,-47,259882
61,0,79,-476,-3,259954
104,14,171,-526,-57,259905
99,-3,212,-546,9,259885
93,-4,222,-454,16,259863
88,-59,181,-467,20,259861
43,-124,58,-501,-5,259947
66,-113,-22,-487,-70,259822
56,-88,83,-427,-26,259813
-7,-93,259,-418,-27,259862
31,-109,319,-467,-1,259880
33,-125,287,-468,3,259758
21,-158,248,-430,-34,259859
7,-231,160,-406,-30,259899
9,-261,20,-485,-22,259881
-50,-214,-23,-503,-36,259806
-60,-181,119,-451,-48,259786
-123,-166,244,-431,31,259960
-83,-157,273,-486,41,259915
-142,-130,283,-424,-4,259888
-170,-140,315,-512,-44,259870
-188,-155,237,-441,-51,259823
-193,-202,45,-474,-3,259909
-161,-194,3,-518,-26,259865
-217,-142,186,-526,-64,259748
-227,-120,220,-466,-20,259764
-188,-98,214,-432,-64,259821
-276,-80,283,-452,-100,259820
-276,-52,347,-474,-16,259781
-272,-43,233,-475,33,259860
-281,-74,35,-518,-62,259903
-236,-53,-12,-567,-62,259859
-252,-33,153,-475,0,259890
-256,-11,204,-573,-53,259834
-221,43,166,-460,-53,259832
-231,48,150,-384,-11,259841
-228,44,197,-482,-9,259792
-239,6,45,-474,15,259901
-211,-3,-216,-427,-50,259890
-184,9,-217,-420,0,259807
-196,25,-119,-424,-29,259757
-181,79,-74,-487,-42,259886
-110,90,-92,-437,-9,259834
-118,93,-23,-457,-30,259767
-107,91,56,-538,-34,259859
-83,68,1,-445,-31,259894
-110,43,-133,-473,-79,259816
-100,28,-135,-534,-20,259873
-113,73,71,-466,-18,259839
-110,94,195,-393,26,259892
-40,109,186,-471,-11,259898
-48,124,242,-542,-45,259865
-9,105,245,-524,-24,259844
7,83,118,-481,-11,259865
5,30,7,-449,-4,259848
16,22,-32,-522,35,259859
16,70,66,-508,-21,259833
7,104,195,-506,1,259894
29,140,251,-473,-64,259940
38,171,276,-467,-83,259907
35,207,312,-470,32,259847
30,197,198,-454,8,259813
48,146,27,-496,-77,259822
64,114,24,-452,-84,259835
39,124,216,-472,-82,259882
35,143,230,-474,-31,259844
83,170,236,-457,-85,259868
66,120,381,-474,-94,259891
24,68,513,-531,-51,259875
46,44,310,-524,36,259893
100,24,41,-491,-10,259900
101,9,85,-429,-15,259863
95,27,238,-471,6,259836
124,81,205,-572,-6,259853
137,106,130,-478,-46,259781
97,72,269,-416,-4,259865
81,61,271,-469,-16,259810
100,74,-1,-507,-54,259757
75,37,-175,-414,-7,259817
78,14,-94,-483,16,259873
82,83,-13,-555,-11,259784
90,192,-85,-468,13,259797
111,203,-26,-377,34,259850
87,131,137,-422,10,259970
63,137,116,-514,-11,259855
79,163,-38,-500,-66,259959
64,114,-152,-517,-3,259890
64,77,-85,-458,-59,259880
56,174,9,-494,-34,259871
57,274,40,-492,55,259926
126,258,104,-488,38,259827
46,264,326,-481,11,259810
65,266,314,-523,-50,259880
82,223,81,-481,8,259804
86,135,22,-450,-25,259854
35,78,110,-482,-26,259780
47,110,94,-498,18,259765
62,126,-19,-511,15,259828
81,132,103,-539,61,259958
25,160,243,-460,50,259893
29,177,119,-509,-58,259849
89,165,-81,-469,-20,259871
40,98,-101,-497,-51,259705
31,70,-51,-455,-49,259814
88,137,-23,-483,72,259897
87,150,11,-415,-23,259903
81,151,138,-488,-75,259853
84,186,257,-513,-54,259852
68,176,161,-511,17,259867
86,139,50,-472,-50,259828
52,80,64,-449,-16,259869
45,48,29,-440,8,259895
54,62,58,-536,-12,259789
21,86,222,-470,-8,259769
30,114,276,-495,-14,259806
46,99,223,-471,10,259873
22,110,171,-462,-45,259932
25,73,68,-495,1,259868
26,24,-40,-469,-72,259870
5,18,-54,-476,-22,259837
-2,52,15,-467,-7,259799
-27,67,26,-457,34,259859
10,79,127,-460,6,259910
-15,68,224,-450,-15,259843
-28,75,165,-463,-24,259819
1,43,26,-490,-5,259837
-8,-16,-60,-484,-28,259848
-27,-25,-23,-459,29,259879
-28,30,31,-555,-21,259756
-33,123,99,-549,-44,259822
-66,154,221,-436,85,259925
-79,165,355,-442,65,259906
-83,188,314,-454,86,259828
-85,164,193,-413,60,259734
-106,144,133,-455,23,259709
-65,153,139,-466,-9,259847
-56,181,114,-494,-88,259763
-63,230,147,-474,50,259785
-52,245,251,-465,82,259797
-74,233,299,-419,-16,259837
-82,193,170,-476,20,259941
-28,152,53,-475,-61,259836
-95,127,22,-503,-9,259813
-45,124,-16,-497,-30,259804
8,150,-25,-452,43,259840
2,158,-12,-473,12,259810
22,177,79,-477,38,259833
25,169,121,-480,-50,259848
14,104,48,-503,-39,259928
17,61,-51,-517,-51,259912
-16,9,-14,-456,6,259904
4,-15,-20,-404,38,259861
38,3,-45,-438,37,259822
24,42,55,-394,-30,259898
55,77,201,-416,-27,259918
65,72,188,-443,32,259861
66,41,119,-491,-50,259783
65,15,106,-476,18,259833
42,-41,81,-476,91,259845
42,-42,45,-523,-33,259920
65,-27,83,-501,-36,259796
57,-16,128,-544,20,259853
75,22,220,-513,93,259862
77,45,265,-472,-22,259920
78,12,150,-451,-15,259875
102,-14,18,-527,45,259886
68,-67,-4,-437,5,259863
38,-107,-1,-440,1,259838
71,-121,-13,-471,14,259921
71,-74,59,-412,4,259964
61,-31,236,-424,-38,259905
20,-66,275,-497,19,259952
42,-83,202,-436,-23,259878
46,-64,121,-541,-57,259866
4,-83,89,-473,-20,259766
53,-121,70,-512,-102,259811
100,-115,88,-402,-41,259877
57,-93,156,-414,-30,259830
96,-84,271,-463,38,259838
71,-101,238,-452,2,259909
84,-90,115,-436,-24,259867
94,-102,6,-450,-27,259809
92,-135,-30,-528,-15,259818
89,-158,-118,-466,-22,259861
129,-128,-96,-533,33,259881
128,-95,-4,-411,-22,259871
126,-75,95,-495,66,259831
123,-73,88,-428,55,259938
130,-47,26,-472,-9,259864
111,-74,-41,-440,56,259772
110,-115,-25,-479,11,259776
138,-127,-116,-533,-81,259867
172,-75,-175,-449,-49,259812
159,-43,-4,-391,24,259872
136,-44,241,-439,38,259811
149,-28,185,-500,-44,259870
151,-16,84,-472,-3,259852
134,-80,113,-448,-21,259893
110,-139,133,-490,-84,259940
138,-124,30,-501,-65,259815
183,-88,44,-458,-6,259842
144,-81,158,-437,35,259873
152,-18,242,-442,-30,259793
128,36,202,-491,55,259898
118,23,73,-476,-8,259886
89,-32,41,-404,-49,259789
53,-36,46,-431,-39,259843
87,7,33,-496,-26,259871
109,-28,-17,-427,-35,259775
103,-42,124,-450,-18,259771
104,12,262,-524,-3,259787
83,62,182,-611,44,259763
107,47,75,-502,-11,259805
78,-5,142,-432,-56,259759
36,-18,134,-503,-42,259872
76,-13,12,-506,4,259935
75,13,31,-506,-33,259844
29,43,185,-500,48,259770
48,80,285,-435,115,259776
57,40,225,-525,34,259843
71,1,162,-469,49,259823
39,-37,147,-504,-29,259781
-34,-24,80,-505,-14,259838
-28,-49,11,-487,63,259886
-77,-15,77,-541,58,259878
-100,89,253,-419,-85,259811
-105,133,215,-425,-60,259912
-94,81,112,-409,-6,259839
-106,13,66,-417,-19,259788
-133,-37,95,-440,-52,259816
-160,-83,-1,-479,-7,259952
-166,-98,-59,-468,-24,259818
-202,-69,-38,-482,-84,259772
-241,4,64,-469,-28,259893
-243,64,184,-389,-63,259859
-241,92,202,-484,-99,259880
-280,96,109,-459,-68,259873
-259,79,25,-454,-25,259786
-259,25,-69,-450,2,259853
-227,-42,-138,-437,86,259830
-216,-42,-69,-477,5,259831
-219,22,130,-485,19,259834
-221,72,200,-442,-7,259784
-231,75,190,-455,-7,259838
-229,90,150,-395,-5,259954
-239,99,116,-409,-57,259907
-315,108,76,-406,18,259814
-249,36,-31,-486,115,259816
-208,13,15,-458,-61,259813
-244,24,157,-499,-81,259871
-218,21,258,-495,-35,259818
-194,23,157,-457,-80,259771
-201,61,158,-428,-35,259784
-202,42,291,-432,-33,259719
-191,-5,279,-386,22,259797
-144,-5,191,-472,-25,259790
-129,39,275,-504,-71,259792
-151,37,369,-507,-42,259922
-107,18,312,-511,-19,259907
-133,30,285,-512,-35,259855
-163,12,272,-509,-11,259907
-151,-28,203,-432,-32,259923
-184,-38,29,-458,-31,259848
-179,-24,-60,-498,3,259752
-181,-20,91,-491,7,259805
-181,11,210,-504,-111,259831
-124,70,211,-489,17,259831
-128,88,149,-403,103,259858
-135,50,155,-446,32,259851
-116,30,140,-505,16,259844
-106,-5,-47,-492,-23,259803
-81,-23,-109,-544,-15,259870
-68,-5,9,-451,-35,259874
-72,41,126,-379,-16,259910
-27,60,43,-393,-40,259925
-17,64,55,-403,-69,259896
-28,42,81,-424,2,259845
-10,24,46,-448,19,259811
-6,-3,-112,-411,23,259882
33,-33,-78,-442,-43,259823
31,-51,68,-442,40,259823
80,4,274,-491,33,259817
91,41,288,-532,55,259948
131,31,279,-488,26,259797
153,25,338,-444,-2,259874
136,50,265,-501,-64,259812
138,50,69,-434,-18,259849
190,17,43,-434,16,259759
178,24,205,-437,-10,259809
130,64,294,-471,25,259811
174,71,238,-502,21,259902
175,83,244,-424,-20,259945
130,107,231,-453,29,259954
129,77,151,-503,-36,259848
153,26,-57,-434,31,259883
165,70,-101,-479,14,259868
145,110,66,-419,-44,259871
132,133,124,-496,-36,259807
167,170,100,-485,-35,259836
143,203,149,-410,-5,259863
100,206,134,-460,-69,259891
121,172,-20,-487,33,259931
124,152,-197,-440,19,259830
121,162,-209,-464,-1,259810
116,142,-148,-488,32,259888
133,195,-97,-482,14,259886
138,235,-100,-461,8,259830
128,231,-72,-439,48,259792
155,212,-53,-465,64,259871
171,196,-27,-467,21,259839
135,173,-126,-473,61,259862
180,113,-202,-459,-37,259846
230,74,-33,-471,44,259853
180,105,172,-481,36,259831
193,143,136,-518,-18,259918
245,170,47,-521,-75,259819
203,155,185,-420,-22,259833
167,128,210,-442,-54,259882
191,101,2,-539,-26,259857
200,48,33,-504,-20,259823
156,11,244,-509,-29,259822
172,26,273,-434,-17,259852
198,37,256,-454,-41,259929
169,26,282,-504,34,259859
157,13,295,-477,-13,259866
163,30,210,-463,-92,259953
142,46,40,-448,19,259877
140,30,35,-437,-17,259849
117,17,193,-423,6,259900
117,50,262,-455,-80,259866
121,95,207,-486,-48,259809
80,92,211,-481,-32,259740
62,62,206,-539,-78,259773
56,58,43,-508,-3,259802
29,50,-135,-502,50,259853
10,30,-85,-514,-9,259869
-10,24,32,-458,-3,259731
-28,52,40,-508,27,259812
2,70,73,-534,44,259773
-45,54,171,-464,-44,259859
-54,56,124,-537,-57,259817
-19,67,-75,-482,-67,259860
-36,17,-215,-408,-37,259719
-20,0,-73,-490,-45,259855
-24,44,-38,-451,-48,259857
-3,84,-38,-421,27,259839
-24,55,19,-485,-65,259785
-31,38,180,-555,4,259821
-56,65,117,-493,-55,259919
-48,82,24,-467,-86,259831
-45,36,-75,-492,14,259821
-33,11,-24,-509,19,259819
-16,43,46,-419,-69,259806
-26,89,72,-482,-28,259804
-24,67,148,-445,50,259795
-41,74,237,-476,18,259834
-60,108,239,-511,-1,259844
-66,71,131,-482,-66,259875
-69,15,9,-421,-75,259833
-76,24,62,-474,-67,259705
-73,86,142,-445,-39,259772
-86,97,101,-470,24,259941
-38,84,125,-439,-4,259889
-71,88,219,-468,30,259922
-117,82,261,-467,49,259838
-95,40,171,-509,15,259871
-90,-7,24,-529,20,259863
-88,-20,105,-517,-47,259898
-90,-29,248,-512,-56,259931
-70,-28,198,-458,-33,259949
-8,15,168,-456,-16,259819
-59,30,245,-509,4,259767
-50,0,248,-468,7,259797
-10,-18,105,-446,1,259865
-26,-41,-28,-499,18,259926
-9,-57,18,-474,28,259887
-18,-44,106,-450,-27,259811
18,-25,88,-469,-10,259854
81,-21,108,-445,-12,259799
61,-19,208,-451,22,259739
55,3,218,-535,16,259823
83,12,43,-484,-21,259830
60,-9,-80,-446,-48,259735
88,-22,56,-480,18,259867
69,-5,175,-451,-33,259850
99,2,131,-458,-17,259874
132,6,170,-478,-17,259899
129,0,323,-466,-10,259906
122,28,273,-491,-29,259902
187,30,28,-406,55,259807
153,21,-65,-424,-6,259818
122,34,64,-477,-45,259838
142,61,69,-506,17,259857
167,75,-6,-493,43,259785
156,77,100,-457,-6,259764
133,79,205,-458,-10,259860
129,89,104,-501,42,259916
160,79,-53,-465,18,259787
141,48,-91,-491,25,259710
61,57,-36,-444,12,259798
100,85,-22,-503,75,259799
109,108,-11,-506,23,259764
106,105,127,-481,-20,259820
82,90,238,-516,-11,259886
63,74,125,-471,-88,259789
73,51,9,-454,-33,259800
56,-10,-39,-412,37,259873
44,-12,-12,-530,43,259808
64,37,-22,-534,2,259816
57,68,-3,-447,-48,259803
20,83,153,-533,44,259765
24,89,257,-454,7,259888
36,107,148,-488,10,259867
3,74,36,-482,9,259758
4,32,29,-438,-33,259759
22,34,41,-462,-16,259826
37,28,45,-524,-2,259919
25,9,86,-458,-66,259822
55,-1,197,-501,18,259906
21,11,255,-394,-22,259863
21,42,190,-414,25,259864
35,6,88,-440,41,259848
-2,-29,93,-437,-9,259918
-14,-18,118,-494,-18,259871
9,-29,85,-388,56,259900
-22,-31,76,-391,10,259836
-16,-49,195,-481,9,259889
-45,-49,269,-495,-10,259943
-29,-40,195,-469,9,259796
-58,-73,80,-471,-6,259778
-83,-84,97,-465,-56,259841
-94,-83,135,-470,-39,259925
-95,-74,105,-413,3,259875
-70,-47,148,-429,-38,259791
-81,-20,252,-420,-47,259896
-84,-54,256,-424,-20,259848
-77,-61,128,-452,-77,259870
-56,-69,-7,-474,37,259834
-120,-89,6,-447,33,259863
-171,-89,80,-465,7,259891
-126,-59,56,-511,1,259978
-103,-31,25,-512,-3,259866
-147,-22,208,-523,-36,259819
-148,1,340,-544,-17,259945
-131,21,111,-447,13,259873
-86,48,-44,-398,-34,259789
-142,10,65,-471,-31,259760
-162,0,137,-457,-42,259864
-105,60,46,-480,-11,259831
-113,62,19,-504,-2,259764
-112,50,203,-492,-5,259842
-107,85,308,-449,30,259840
-164,112,157,-380,3,259755
-96,75,86,-460,45,259852
-115,9,119,-419,-64,259858
-139,65,72,-445,-38,259851
-150,112,-24,-521,5,259798
-150,82,24,-457,14,259831
-141,70,235,-409,25,259793
-168,99,223,-483,-29,259821
-151,90,75,-506,26,259820
-158,47,97,-482,17,259778
-226,45,133,-429,-25,259872
-224,116,72,-464,20,259883
-178,167,25,-407,-32,259762
-169,156,102,-407,-13,259785
-174,127,246,-440,-24,259882
-152,76,230,-476,3,259896
-144,6,175,-433,27,259852
-175,-25,198,-448,0,259770
-155,-43,154,-425,-31,259818
-166,-52,73,-386,47,259898
-174,-21,121,-492,1,259895
-158,27,195,-445,128,259848
-133,55,292,-415,60,259903
-116,44,321,-493,26,259887
-133,57,231,-539,-40,259824
-85,-3,96,-398,-26,259777
-78,-45,104,-404,10,259755
-86,-66,18,-446,16,259764
-22,-36,-26,-452,-3,259820
-28,-28,25,-440,-37,259907
-12,11,160,-496,-17,259799
25,39,119,-493,5,259890
25,64,-46,-495,-28,259883
57,77,-61,-536,23,259844
39,38,-38,-501,-18,259834
77,-1,-25,-435,-9,259902
96,-6,-3,-424,-69,259948
73,9,28,-480,6,259836
95,28,114,-513,-60,259868
80,57,157,-451,2,259788
86,65,140,-405,71,259777
81,69,128,-459,-17,259886
56,58,113,-469,8,259847
87,74,39,-557,5,259828
93,83,81,-527,32,259767
69,81,130,-483,-22,259872
92,83,228,-473,-22,259823
75,72,207,-456,-76,259846
92,36,84,-400,-60,259827
110,-7,58,-436,38,259777
59,-28,116,-463,-14,259758
82,17,2,-510,12,259789
129,101,-49,-499,37,259832
118,103,61,-474,3,259828
156,128,294,-376,34,259853
143,139,271,-456,43,259854
138,122,112,-489,26,259940
143,64,136,-414,76,259873
104,27,126,-442,-79,259872
100,38,-26,-484,-108,259867
129,86,8,-423,-10,259843
99,75,142,-451,-25,259927
116,94,178,-461,-24,259897
130,119,121,-517,-18,259918
137,114,126,-536,-24,259810
98,64,115,-475,34,259853
82,-6,-67,-538,-7,259855
102,-2,-87,-530,-29,259904
74,11,-30,-491,0,259846
62,32,27,-478,-39,259929
85,83,89,-431,-59,259856
58,126,76,-471,-28,259856
64,112,-8,-532,21,259900
65,72,64,-459,5,259845
35,0,80,-417,26,259814
12,20,29,-481,33,259741
42,5,42,-459,35,259792
24,-15,150,-440,1,259912
46,-4,191,-454,-32,259918
25,1,173,-373,-38,259856
17,-29,143,-445,-42,259848
36,-42,168,-483,-92,259933
21,-40,142,-510,-1,259904
32,-22,69,-417,-16,259873
40,-22,134,-524,-38,259849
25,-3,249,-455,-18,259937
55,36,204,-492,-47,259921
57,14,133,-459,-53,259821
107,-34,74,-497,16,259810
113,-34,51,-433,5,259796
105,-51,-37,-490,10,259808
125,-66,-88,-425,25,259823
120,-39,-47,-398,-44,259892
96,23,17,-484,-47,259834
125,45,91,-427,25,259885
106,36,96,-451,-12,259817
124,65,64,-428,-58,259771
148,71,0,-480,-10,259849
144,58,16,-508,-34,259816
155,64,6,-480,-17,259815
146,88,63,-475,48,259887
109,120,150,-465,7,259947
84,166,292,-462,-27,259909
69,138,222,-483,6,259814
89,137,252,-472,-69,259913
75,125,230,-459,-63,259930
76,96,110,-495,3,259983
113,59,26,-487,-92,259932
109,74,190,-531,-33,259895
71,110,232,-495,-1,259794
84,164,226,-507,-22,259843
58,152,175,-494,-34,259786
63,119,152,-476,-34,259847
45,87,153,-483,44,259878
25,61,43,-539,-16,259824
105,50,-28,-483,-32,259761
76,81,103,-413,-34,259847
49,105,44,-465,56,259906
109,112,-67,-463,-1,259878
66,73,-1,-450,3,259814
27,75,29,-498,-7,259904
35,69,-134,-485,41,259855
53,32,-142,-385,-3,259780
33,4,-109,-484,22,259698
71,45,-42,-429,17,259809
60,64,-33,-484,48,259876
129,109,61,-478,-33,259817
83,102,-26,-487,-51,259848
107,85,-59,-478,-33,259789
90,25,-23,-431,-44,259885
33,-7,-33,-463,-29,259841
64,-22,-78,-469,-9,259781
60,-40,29,-477,-11,259892
39,-14,108,-488,-25,259810
74,48,170,-433,-17,259813
73,58,210,-472,-93,259907
43,48,173,-465,-50,259855
72,42,96,-449,-21,259849
51,-19,58,-432,3,259779
47,-61,122,-518,-11,259843
53,-61,226,-534,-15,259877
54,-21,240,-509,-18,259928
42,12,211,-468,34,259858
55,13,207,-440,-31,259856
81,24,203,-465,-65,259785
91,49,109,-513,37,259822
78,48,-89,-439,-9,259757
109,2,-101,-410,30,259832
71,-25,16,-430,-4,259934
63,27,56,-508,-65,259850
60,52,136,-459,-7,259862
64,51,224,-460,27,259846
59,90,184,-427,-37,259791
79,91,61,-516,-57,259923
94,54,-67,-431,18,259844
71,79,-3,-513,-17,259750
77,111,32,-536,23,259806
85,152,-62,-433,3,259946
102,138,-151,-442,-39,259831
58,147,-23,-437,10,259761
27,153,25,-418,-48,259971
56,131,-98,-454,66,259851
58,112,-162,-426,47,259790
55,117,-74,-437,-24,259888
43,144,110,-448,-21,259832
31,156,189,-479,-19,259847
25,169,254,-483,7,259882
-37,201,333,-449,-5,259863
-57,180,280,-435,4,259889
-28,156,242,-423,-26,259841
-59,105,239,-514,28,259815
-50,66,288,-518,-83,259855
-36,66,361,-461,-22,259867
-89,58,380,-452,49,259931
-83,82,352,-486,9,259853
-117,107,405,-454,1,259824
-156,84,325,-508,30,259910
-151,71,201,-513,90,259865
-152,10,68,-424,-51,259815
-162,1,136,-469,-40,259854
-157,19,282,-481,-17,259910
-152,36,257,-538,5,259958
-129,29,240,-499,7,259845
-147,27,339,-477,-24,259797
-173,35,322,-469,54,259813
-171,-12,123,-442,60,259939
-168,-76,-54,-458,-12,259944
-179,-123,-7,-507,-60,259837
-200,-129,78,-492,-62,259897
-199,-125,14,-500,-14,259934
-159,-120,15,-453,2,259899
-205,-128,132,-440,31,259840
-210,-102,114,-491,25,259825
-174,-112,-48,-505,-12,259788
-194,-164,-58,-485,-8,259825
-199,-174,12,-464,44,259741
-178,-147,83,-490,2,259761
-185,-107,144,-461,-8,259808
-189,-71,202,-524,-48,259915
-203,-43,226,-492,36,259858
-191,-53,161,-432,-16,259842
-214,-63,10,-470,-13,259752
-193,-92,-33,-515,-48,259822
-211,-111,62,-480,52,259816
-183,-86,136,-499,56,259912
-240,-1,120,-452,9,259854
-204,31,162,-426,-1,259814
-224,70,248,-414,16,259797
-224,104,204,-472,3,259860
-222,99,74,-468,-19,259882
-211,64,35,-472,-28,259762
-205,8,117,-478,-33,259865
-158,23,261,-447,-29,259851
-182,59,255,-446,-61,259903
-150,69,280,-543,-25,260028
-170,54,318,-460,31,259913
-160,37,308,-495,36,259908
-159,16,161,-548,-21,259780
-138,-14,15,-478,-20,259770
-105,-47,55,-443,-60,259827
-95,-26,169,-483,-34,259781
-109,1,130,-475,-17,259740
-49,-3,152,-494,3,259805
-99,-21,210,-553,16,259865
-101,22,101,-414,7,259892
-57,27,-87,-472,21,259932
-69,-28,-105,-502,-53,259920
-96,-43,-22,-394,-117,259822
-70,3,81,-487,-4,259800
-89,0,-8,-449,46,259853
-28,38,79,-497,32,259881
-71,37,140,-455,15,259950
-44,28,86,-516,-5,259928
5,24,-96,-447,-11,259851
-28,33,-117,-432,-62,259833
-26,-20,-38,-440,-50,259743
31,-28,48,-483,15,259857
-3,-6,-9,-482,-8,259849
32,52,43,-388,-41,259812
5,43,139,-369,59,259843
15,48,130,-517,50,259906
88,56,11,-502,-26,259936
51,-2,20,-411,115,259858
85,-61,104,-453,2,259868
104,-49,157,-421,-28,259872
98,-42,86,-478,11,260005
133,-59,167,-471,-14,259911
83,-48,301,-444,-42,259886
77,20,201,-534,-85,259798
132,57,10,-474,48,259820
129,7,9,-433,-16,259816
169,-7,144,-474,-49,259932
207,59,197,-467,-17,259963
213,90,177,-506,39,259860
228,111,247,-478,-11,259833
237,114,284,-444,-71,259865
210,122,146,-454,-17,259911
252,94,-12,-486,-31,259837
214,59,-15,-523,-88,259880
213,72,57,-465,-76,259869
249,103,98,-466,8,259826
236,124,155,-508,13,259858
236,128,292,-497,-14,259866
206,119,336,-484,-25,259815
196,124,141,-545,15,259815
220,115,-60,-496,-9,259792
189,77,-1,-460,-24,259827
150,23,6,-511,-62,259912
204,37,33,-439,-14,259851
157,50,30,-516,-17,259795
186,79,189,-560,-51,259898
163,78,274,-523,3,259943
145,81,185,-468,24,259836
158,79,37,-486,-44,259767
161,33,33,-556,-3,259879
126,-26,64,-564,20,259955
149,-23,51,-583,4,259893
143,-8,-20,-544,-35,259795
139,39,138,-531,-20,259846
105,50,210,-501,15,259885
105,82,43,-497,-58,259967
134,101,-84,-499,-64,259811
66,42,-21,-456,-34,259804
104,10,-60,-461,-11,259755
140,28,-100,-482,42,259761
128,50,-79,-427,-12,259871
141,32,60,-479,-1,259883
120,-3,83,-387,-15,259979
111,20,-61,-460,20,259967
113,41,-127,-506,-2,259810
75,31,-85,-508,-17,259791
71,3,-21,-490,-69,259896
103,9,-18,-489,-35,259792
84,50,-37,-418,-50,259744
97,86,71,-435,-34,259889
59,72,195,-473,-3,259968
56,82,44,-410,-3,259874
77,79,-89,-425,-24,259740
-8,29,6,-357,-45,259844
3,9,28,-460,-15,259892
49,33,-13,-447,-7,259836
45,52,-1,-448,-29,259750
39,74,234,-460,-44,259890
15,101,276,-477,5,259895
26,141,112,-421,1,259859
45,141,4,-442,-17,259933
4,96,145,-414,11,259928
-23,76,77,-375,-5,259872
39,102,103,-437,6,259866
-34,100,228,-391,-34,259905
7,108,364,-482,-9,259869
-8,152,347,-524,27,259885
12,188,262,-556,67,259911
12,164,196,-454,15,259801
24,130,98,-480,4,259877
44,128,22,-433,-6,259864
80,104,101,-474,88,259865
27,92,221,-458,-34,259924
49,131,284,-464,-40,259892
47,134,273,-528,-22,259839
39,90,81,-487,26,259866
70,74,20,-499,-35,259784
54,89,22,-505,-27,259808
57,79,-36,-505,78,259867
122,16,-26,-451,-48,259886
87,-24,41,-484,-67,259815
98,7,123,-426,-83,259924
62,17,112,-466,-42,259844
55,-9,-35,-476,-50,259873
60,-22,-78,-442,-80,259889
49,15,46,-453,-39,259926
-21,9,3,-442,-2,259837
44,-31,-13,-457,27,259854
28,37,110,-417,33,259814
36,97,187,-439,-85,259910
63,77,149,-442,-39,259947
8,29,106,-472,26,259884
-9,78,163,-452,83,259900
-36,87,60,-477,1,259889
-1,22,-22,-544,-38,259828
10,6,87,-434,-11,259819
-3,59,164,-478,27,259897
38,161,177,-475,-18,259829
8,179,251,-510,44,259848
22,142,151,-489,64,259844
45,136,39,-458,22,259803
6,105,-18,-478,47,259862
17,84,-17,-448,83,259868
42,46,21,-458,52,259906
15,46,28,-435,-73,259876
39,74,62,-444,-23,259902
21,70,118,-395,-9,259848
13,110,99,-488,-57,259912
33,104,28,-486,-19,259894
38,73,-25,-463,-26,259886
43,60,-8,-429,-1,259883
34,32,101,-460,-81,259821
0,2,240,-501,-21,259894
37,54,230,-457,29,259856
25,89,166,-333,27,259897
20,40,-9,-410,10,259871
54,49,68,-413,-16,259859
-17,50,163,-458,-38,259859
-2,35,-50,-477,-39,259842
27,-6,-125,-467,-21,259806
-48,-5,104,-483,-76,259824
-85,32,216,-476,7,259867
-34,5,180,-467,44,259908
-60,-18,71,-539,47,259859
-56,3,114,-511,-64,259826
-102,-12,117,-463,4,259894
-102,-54,31,-499,-10,259873
-78,-55,108,-471,-22,259897
-115,-24,183,-478,-23,259957
-47,24,213,-473,26,259958
-62,26,163,-424,70,259952
-68,23,165,-430,-8,259850
-51,16,187,-458,45,259879
-72,28,13,-449,49,259857
-1,25,-130,-531,8,259791
23,-28,-44,-561,-32,259773
33,-47,156,-486,-10,259906
81,-24,107,-499,-28,259849
28,10,38,-460,-33,259825
45,-24,75,-462,-71,259826
21,-8,149,-408,-37,259885
32,29,74,-435,7,259983
125,36,48,-450,-23,259887
116,41,227,-438,-9,259882
116,83,402,-485,18,259814
108,152,398,-499,-33,259861
58,156,396,-528,66,259909
31,162,368,-513,11,259869
30,193,232,-536,42,259804
-28,166,145,-472,-32,259984
-55,132,167,-446,-56,259890
-86,130,182,-498,-137,259863
-143,139,129,-441,-103,259801
-177,171,113,-469,8,259797
-193,105,114,-459,26,259807
-211,52,63,-464,2,259776
-232,49,26,-515,-1,259869
-282,4,43,-502,-34,259853
-303,-53,94,-504,-39,259807
-317,-41,193,-534,-29,259844
-326,17,281,-508,-13,259811
-279,46,272,-460,1,259865
-260,24,196,-432,-67,259851
-254,5,180,-415,-98,259718
-225,-31,52,-488,-78,259833
-258,-97,-96,-472,-63,259871
-256,-144,-60,-485,-3,259877
-234,-174,43,-398,-61,259831
-236,-155,-15,-458,-19,259833
-172,-145,-93,-482,-40,259886
-130,-145,-27,-463,-99,259874
-154,-158,16,-410,-141,259889
-80,-123,20,-437,-47,259896
-64,-125,19,-437,15,259925
-38,-171,44,-437,19,259856
-23,-188,177,-488,-44,259830
-16,-168,290,-483,-57,259865
-3,-145,289,-430,-95,259771
-11,-134,323,-380,-47,259797
-27,-138,286,-465,-43,259772
-22,-118,183,-483,-69,259777
-73,-104,48,-418,85,259754
-63,-120,0,-475,45,259747
-96,-129,76,-487,43,259785
-115,-124,75,-491,-18,259746
-87,-51,74,-478,-9,259830
-115,-6,133,-450,14,259883
-135,2,187,-415,-3,259856
-97,70,234,-470,-86,259809
-94,106,86,-468,36,259779
-125,146,178,-458,23,259824
-137,143,387,-458,-4,259909
-128,183,410,-498,5,259885
-89,207,216,-501,11,259791
-73,193,215,-498,-4,259668
-85,166,262,-595,4,259721
-69,172,107,-462,-31,259793
-36,164,-54,-481,-13,259760
-24,128,17,-458,28,259801
-59,101,147,-462,-5,259835
-23,137,142,-537,-33,259789
8,167,90,-464,33,259797
-21,160,152,-512,51,259858
5,186,191,-466,-31,259854
20,222,105,-431,-23,259886
15,223,102,-497,13,259952
19,210,201,-466,56,259823
23,226,242,-491,26,259810
5,209,158,-427,-45,259927
-16,158,86,-499,-6,259868
-42,101,107,-518,-9,259862
-83,45,-25,-521,-75,259876
-81,35,-171,-476,17,259906
-120,-16,-238,-414,-60,259841
-121,-53,-197,-466,-33,259856
-115,-72,-119,-497,-17,259850
-133,-108,-87,-537,42,259951
-102,-96,-38,-529,4,259890
-101,-82,37,-504,10,259876
-108,-105,63,-535,-18,259899
-63,-134,-40,-461,-5,259895
-30,-122,-35,-494,-37,259861
-23,-109,36,-448,15,259898
36,-122,73,-572,3,259859
83,-153,63,-460,-19,259865
142,-114,83,-447,-25,259865
171,-103,106,-476,47,259940
246,-132,36,-520,0,259903
282,-160,-51,-459,-43,259838
334,-165,-41,-473,-44,259896
339,-188,-20,-520,37,259805
399,-172,96,-445,-8,259881
424,-139,108,-521,-8,259887
483,-102,100,-553,-12,259907
493,-86,153,-404,69,259950
478,-74,191,-410,25,259842
510,-46,123,-458,21,259865
512,-40,85,-460,1,259835
489,-37,178,-453,45,259791
500,-15,314,-499,7,259839
462,-12,296,-475,19,259879
475,21,204,-447,15,259838
449,46,301,-471,-18,259809
389,59,298,-561,20,259809
404,71,142,-558,39,259839
329,57,77,-511,-44,259793
278,70,237,-498,-40,259851
229,78,301,-494,-32,259856
204,101,193,-516,-1,259893
198,157,176,-422,-33,259866
134,183,322,-454,-20,259844
77,190,265,-478,-39,259875
104,225,101,-529,-39,259793
44,223,61,-443,-42,259860
18,208,155,-496,-68,259788
-6,201,140,-493,-43,259848
-8,236,108,-504,-98,259848
2,252,-14,-509,-46,259906
-12,235,14,-501,57,259852
-31,222,-15,-452,-36,259864
-15,225,-177,-463,96,259922
-55,219,-251,-490,22,259856
-61,217,-155,-465,-32,259833
-86,167,-87,-497,-93,259894
-104,121,-131,-445,-151,259830
-86,89,-171,-479,-83,259871
-141,97,-51,-471,-69,259772
-115,70,-114,-492,-51,259854
-80,84,-257,-506,-46,259828
-112,69,-239,-401,40,259911
-161,37,-163,-478,-41,259848
-118,46,-134,-447,-18,259795
-120,63,-203,-496,33,259820
-120,91,-160,-454,38,259837
-112,108,-68,-520,-21,259945
-96,123,-115,-472,-40,259865
-56,144,-202,-453,29,259802
-48,125,-170,-423,61,259806
-24,104,-80,-486,-79,259854
12,127,-29,-432,-56,259945
10,166,19,-429,-46,259905
51,191,84,-488,39,259860
76,183,176,-450,61,259811
100,169,128,-461,-7,259864
162,139,70,-468,17,259921
153,85,116,-435,6,259874
171,73,235,-496,-51,259844
203,47,251,-471,22,259873
255,-8,259,-445,-11,259860
273,-21,323,-479,-48,259960
281,-1,424,-453,-21,259968
286,15,293,-504,-43,259900
302,23,136,-502,7,259842
290,23,265,-444,-33,259824
266,8,392,-414,5,259950
264,26,371,-387,-38,259828
279,59,378,-421,27,259894
264,0,473,-451,41,259841
278,-21,542,-452,-53,259680
243,1,431,-476,3,259759
227,15,329,-480,-12,259824
186,-8,345,-496,-1,259918
116,-14,388,-536,-5,259959
96,32,387,-482,-55,259953
62,27,281,-399,5,259970
22,2,229,-460,-9,259871
-41,34,259,-476,45,259801
-70,57,139,-452,45,259811
-48,25,4,-434,-2,259817
-104,-9,79,-470,-26,259760
-160,14,209,-479,-34,259846
-171,54,187,-457,-91,259863
-187,40,69,-429,-23,259873
-192,53,154,-466,11,259859
-253,89,229,-493,-11,259845
-285,119,25,-405,-14,259872
-281,101,-215,-511,49,259835
-335,57,-209,-435,34,259732
-359,57,-165,-490,-45,259826
-366,64,-225,-566,-100,259877
-369,60,-247,-445,-88,259817
-372,47,-182,-479,-67,259821
-362,64,-73,-429,-61,259927
-380,63,-189,-467,-14,259841
-305,62,-232,-451,-3,259837
-329,60,-150,-404,-101,259839
-328,89,-81,-482,-86,259747
-248,108,-122,-520,-14,259823
-241,121,-45,-490,-2,259890
-229,123,53,-478,-20,259912
-198,158,17,-447,-45,259779
-149,167,-106,-460,25,259832
-111,174,-92,-512,-14,259748
-132,169,-41,-462,-43,259814
-88,137,-68,-447,-90,259847
-50,126,-8,-508,-49,259841
-83,103,72,-522,-26,259903
-19,100,132,-480,-12,259867
31,70,122,-469,41,259793
55,29,113,-455,2,259818
141,36,70,-494,10,259809
171,42,85,-459,-61,259854
197,3,155,-489,27,259804
210,-27,253,-476,14,259805
218,-19,295,-454,-7,259891
262,4,361,-449,-49,259889
221,22,427,-449,-42,259812
289,-19,263,-475,-51,259831
311,-39,169,-487,-84,259833
282,-44,253,-500,-4,259834
288,-32,283,-540,17,259929
276,-32,275,-520,-33,259925
244,-60,387,-466,-63,259812
220,-84,507,-431,-73,259954
195,-49,453,-497,-97,259992
193,-28,363,-522,-71,259863
165,-45,403,-491,-19,259858
129,-23,428,-510,-69,259859
140,6,331,-512,-30,259862
111,17,267,-403,64,259970
66,-12,365,-492,25,259906
49,-4,447,-545,50,259852
16,11,363,-533,57,259745
-5,2,178,-573,24,259860
-31,6,169,-498,23,259847
-111,26,221,-489,-32,259846
-133,51,95,-489,6,259808
-121,45,148,-541,45,259739
-183,24,303,-512,-19,259758
-208,18,331,-558,-18,259836
-213,28,216,-523,-40,259867
-279,-2,22,-520,-76,259832
-306,-11,-43,-508,18,259839
-369,-40,-20,-449,-32,259884
-373,-35,-82,-480,3,259903
-367,2,-125,-517,2,259781
-389,13,-141,-480,23,259876
-390,59,-43,-442,6,259787
-392,56,-94,-422,-12,259798
-393,27,-304,-408,-58,259849
-380,42,-271,-411,-85,259788
-387,55,-209,-512,-28,259773
-363,63,-299,-508,41,259899
-355,28,-242,-412,-8,259786
-372,42,-33,-515,7,259844
-328,117,9,-557,-9,259969
-283,115,-137,-484,19,259897
-261,47,-105,-490,-9,259804
-269,-4,50,-399,-60,259769
-246,10,-17,-422,-41,259763
-213,-38,-160,-502,17,259821
-185,-153,-47,-482,14,259869
-191,-146,94,-465,-27,259867
-163,-103,140,-491,-29,259865
-96,-133,108,-506,24,259817
-97,-131,70,-488,-25,259833
-22,-127,47,-498,-28,259874
-18,-111,46,-473,-23,259888
30,-143,78,-459,23,259845
25,-170,263,-501,16,259901
29,-143,346,-505,-28,259895
63,-116,378,-448,-76,259881
61,-148,458,-431,-51,259909
96,-117,357,-551,-59,259894
148,-47,291,-490,-24,260019
94,-45,297,-422,0,259938
128,-93,219,-429,-82,259859
141,-74,324,-446,-58,259812
93,-40,437,-534,-24,259819
136,-30,409,-499,-88,259819
118,-66,318,-408,-79,259863
118,-58,242,-479,-28,259796
162,-41,212,-518,-43,259759
113,-36,212,-454,73,259814
135,-25,158,-515,3,259912
156,4,185,-473,-45,259875
134,29,290,-449,-62,259920
160,49,311,-471,-58,259786
129,47,254,-495,4,259839
111,16,132,-449,-1,259857
140,10,90,-481,-19,259802
88,11,23,-495,14,259725
128,32,-105,-459,-28,259748
131,39,-22,-482,-69,259829
50,40,122,-555,-93,259844
71,103,69,-496,-79,259834
74,123,-39,-473,-24,259892
52,107,-22,-501,-47,259893
47,110,8,-505,-51,259861
45,135,-104,-485,10,259814
58,114,-180,-495,-34,259769
71,80,-8,-445,35,259879
25,77,112,-442,17,259869
58,139,49,-442,-60,259897
69,145,7,-478,8,259903
43,121,9,-449,-24,259777
72,108,-1,-543,-50,259735
67,101,-78,-427,2,259839
94,89,-153,-423,9,259850
109,74,-38,-470,22,259880
78,86,98,-500,-2,259909
97,101,29,-445,-5,259822
136,81,-51,-486,-43,259870
122,25,48,-461,31,259880
115,30,59,-470,7,259826
147,52,-85,-490,15,259850
175,-2,-134,-500,13,259916
175,-47,80,-490,-49,259836
167,1,158,-440,-12,259811
231,85,117,-422,80,259821
235,57,70,-464,17,259841
263,27,96,-468,6,259879
275,56,30,-444,12,259920
279,62,-91,-474,-49,259764
270,43,-100,-493,-32,259790
295,43,18,-427,22,259835
266,91,48,-473,27,259855
285,104,-4,-490,-22,259837
286,67,63,-475,28,259886
263,76,106,-486,-37,259875
264,130,44,-427,-33,259850
271,100,-64,-435,5,259864
255,31,-56,-469,-56,259807
227,34,118,-472,-78,259836
193,51,191,-503,-38,259784
195,37,146,-558,8,259866
218,23,146,-520,35,259769
171,50,199,-501,-25,259784
163,92,173,-532,-50,259897
180,74,72,-479,10,259869
181,57,63,-460,-23,259751
135,96,267,-459,32,259909
116,99,301,-508,-11,259859
120,105,203,-495,-41,259754
74,79,209,-446,-25,259859
50,94,292,-494,-33,259783
22,107,136,-470,-87,259853
45,90,2,-516,-107,259859
5,40,46,-502,-20,259790
17,57,216,-542,-37,259833
-18,105,148,-420,-30,259851
9,118,122,-475,-26,259802
-15,61,124,-470,-55,259837
-24,61,128,-517,6,259872
-25,80,30,-504,-26,259840
-2,66,-73,-428,-5,259791
-16,9,-155,-408,-52,259885
-21,13,-23,-448,-52,259779
-54,65,9,-448,-1,259801
-24,97,-27,-453,-24,259799
-21,83,-40,-462,-5,259861
-28,105,42,-507,-55,259861
-39,143,5,-542,-49,259894
-16,122,-127,-473,-59,259807
-10,68,-82,-437,-24,259925
-22,77,106,-433,-2,259899
-55,109,76,-433,-4,259842
-6,121,63,-515,-54,259877
-26,112,214,-453,-23,259869
-56,151,253,-429,-56,259845
-10,191,57,-405,-31,259723
2,187,-14,-466,-16,259753
-19,134,145,-467,10,259773
-19,121,249,-556,-7,259792
-4,165,179,-484,-36,259891
12,167,200,-525,21,259781
-12,143,294,-474,-34,259857
-38,146,306,-430,7,259857
-8,162,224,-444,32,259876
-13,146,161,-482,13,259873
-19,119,199,-501,-21,259805
-7,116,299,-481,17,259909
-7,114,252,-512,34,259867
12,89,226,-502,-18,259844
-28,43,286,-398,-86,259790
-37,17,263,-542,18,259822
-36,16,104,-472,24,259795
-49,-7,39,-469,38,259874
-51,-45,73,-517,27,259775
-48,-32,188,-438,44,259798
-66,2,151,-459,-21,259805
-41,14,129,-517,-43,259794
-39,-12,180,-504,-41,259908
-62,-6,146,-518,14,259888
-49,5,19,-479,39,259865
-68,-7,-18,-543,56,259769
-82,-37,7,-448,-24,259774
-70,-30,18,-468,-45,259801
-79,-7,33,-497,-28,259832
-99,21,49,-504,5,259805
-101,55,47,-426,5,259837
-101,61,19,-414,-31,259826
-99,57,-16,-445,-64,259950
-114,30,-105,-491,-23,259894
-118,22,-65,-480,60,259852
-122,23,61,-498,32,259831
-135,27,37,-445,-11,259880
-119,57,13,-462,11,259845
-142,106,110,-491,-11,259931
-159,129,76,-429,-91,259870
-130,118,-36,-442,-14,259802
-126,111,-43,-423,12,259831
-142,83,-9,-450,18,259848
-127,72,51,-497,-11,259862
-135,88,100,-455,-68,259821
-101,99,132,-452,-13,259766
-84,76,147,-477,9,259732
-70,104,185,-486,58,259906
-58,164,142,-515,5,259968
-45,146,104,-515,-47,259903
-31,97,147,-497,-23,259804
-25,72,303,-488,19,259848
-14,98,224,-431,23,259853
41,108,224,-527,14,259861
22,79,303,-424,1,259865
34,98,294,-472,13,259844
63,119,84,-505,-38,259797
70,86,71,-456,-4,259806
27,19,184,-554,22,259893
72,19,208,-464,22,259924
57,39,72,-497,30,259843
80,19,95,-532,-20,259846
49,-19,215,-457,-78,259816
42,23,176,-475,-71,259823
58,47,12,-506,-69,259837
51,8,-34,-482,-29,259819
25,-36,93,-475,-22,259819
18,-35,170,-504,68,259828
7,-47,121,-499,50,259847
6,-80,130,-491,-62,259878
-19,-113,264,-469,44,259864
-62,-87,202,-439,67,259752
-4,-63,51,-457,-12,259773
-74,-61,92,-436,-48,259828
-79,-85,208,-458,-81,259817
-53,-79,212,-429,-26,259771
-70,-60,138,-458,-15,259797
-73,-50,192,-515,23,259745
-112,-46,302,-472,42,259828
-157,-45,189,-443,-43,259819
-133,-33,107,-446,55,259863
-138,-36,155,-485,29,259828
-165,-61,186,-454,-58,259878
-142,-51,160,-425,-22,259778
-166,-22,167,-462,-15,259853
-167,-2,191,-483,23,259870
-179,-28,148,-413,-23,259888
-190,-33,103,-477,17,259857
-178,-13,16,-492,6,259755
-194,-43,-56,-463,-43,259842
-199,-68,6,-454,-54,259873
-200,-95,80,-446,1,259803
-175,-57,24,-531,40,259925
-141,0,78,-494,-50,259910
-168,20,95,-517,-24,259914
-157,65,63,-437,-32,259848
-145,73,-45,-428,-35,259816
-153,15,-45,-484,-16,259949
-158,-36,-4,-516,-59,259905
-143,-38,38,-582,6,259933
-125,-29,28,-497,-7,259874
-149,4,44,-480,-5,259826
-114,19,108,-547,-45,259867
-125,65,74,-503,-49,259932
-90,93,-21,-480,6,259888
-56,73,-4,-474,47,259925
-77,34,49,-440,-19,259873
-18,4,109,-460,-16,259832
-19,-16,105,-458,-33,259908
8,1,151,-452,-95,259813
29,13,213,-479,16,259857
22,3,117,-492,21,259835
59,18,91,-583,4,259775
38,45,150,-532,-42,259798
54,11,182,-511,-21,259841
74,-39,231,-472,-10,259919
108,-59,212,-449,-37,259854
129,-46,311,-467,-14,259868
113,-54,299,-487,49,259880
163,-52,188,-491,-25,259833
189,-29,110,-498,-30,259864
138,-51,122,-508,41,259944
162,-84,157,-476,38,259901
159,-107,126,-483,-12,259838
135,-103,112,-535,-72,259872
152,-73,219,-444,1,259885
140,-68,147,-447,-27,259866
157,-34,34,-470,-52,259866
146,-34,37,-489,-51,259888
138,-79,36,-504,-19,259843
149,-47,14,-472,-43,259869
120,-45,31,-475,-33,259910
130,-76,41,-400,-19,259752
128,-48,178,-456,-27,259773
83,-16,168,-460,-65,259815
100,-21,-26,-450,-8,259775
141,-30,-96,-442,-29,259891
134,-29,-5,-498,-33,259864
119,-25,-51,-506,-68,259978
166,-63,-104,-514,-6,259789
177,-62,-66,-467,55,259829
154,-9,61,-460,30,259914
138,-3,36,-544,-31,259838
146,-7,-58,-532,-23,259871
122,18,-10,-492,4,259883
105,30,-11,-528,-27,259850
144,8,-50,-485,0,259799
149,-12,46,-467,13,259837
160,12,150,-504,-60,259823
195,51,62,-472,-115,259786
221,59,24,-485,-41,259898
107,69,23,-475,-1,259821
148,103,12,-501,-71,259775
112,85,-49,-473,-8,259841
129,67,-25,-487,-61,259766
148,50,36,-457,-76,259710
167,54,62,-464,6,259806
187,68,80,-496,-47,259859
181,74,112,-522,-1,259834
174,90,92,-612,39,259830
169,101,33,-462,16,259859
168,99,85,-489,-73,259849
147,52,134,-423,-50,259827
156,41,143,-422,-70,259855
167,57,177,-472,-19,259801
190,101,227,-482,19,259782
197,105,192,-518,-60,259888
202,124,121,-455,-98,259853
215,136,97,-503,-76,259851
208,113,108,-550,41,259898
180,72,122,-481,13,259949
200,46,200,-451,-55,259916
183,37,210,-442,3,259827
190,68,251,-450,-16,259778
181,89,200,-431,-1,259737
209,116,98,-511,-23,259878
201,143,79,-503,35,259828
194,155,109,-409,-16,259792
145,142,33,-436,-5,259902
185,103,21,-572,3,259911
141,64,113,-495,0,259908
149,66,117,-510,-50,259997
131,80,-3,-469,-9,259924
114,105,-96,-474,-21,259826
65,98,-79,-478,-11,259855
40,115,-76,-491,50,259862
14,107,-167,-483,-47,259895
15,104,-8,-427,-34,259783
-49,99,153,-428,-104,259823
-6,139,126,-447,-87,259853
1,154,46,-431,-3,259826
-38,133,107,-433,-12,259803
-50,120,137,-435,39,259889
-59,138,70,-464,-38,259883
-109,132,-16,-452,0,259837
-66,116,65,-475,42,259874
-96,106,148,-437,-12,259922
-113,112,166,-491,2,259840
-106,134,112,-564,-49,259869
-120,133,61,-461,6,259761
-124,123,63,-462,11,259713
-116,130,63,-499,-22,259917
-128,108,5,-427,-48,259964
-90,80,63,-503,-58,259886
-161,94,207,-448,-52,259878
-123,105,222,-452,-49,259866
-115,105,179,-530,31,259837
-109,136,217,-467,-93,259829
-96,167,265,-438,-41,259824
-79,175,176,-538,-35,259912
-70,132,88,-490,24,259931
-53,103,230,-475,91,259906
-68,101,252,-468,63,259812
-33,125,174,-538,-87,259779
-50,116,128,-499,-45,259844
-55,135,93,-552,-36,259841
-41,183,37,-442,30,259921
-46,183,8,-477,15,259803
-74,153,16,-473,-34,259838
-60,128,115,-467,-2,259829
-51,104,114,-460,-62,259910
-44,105,104,-434,-67,259884
-44,94,138,-430,-52,259898
-12,115,71,-456,-96,259947
-18,126,8,-518,-12,259894
-30,124,27,-503,-26,259836
-39,106,77,-486,-12,259778
-67,94,86,-464,-27,259834
-52,109,132,-510,-17,259861
-35,110,185,-487,-3,259885
-31,95,134,-417,-32,259940
-12,48,36,-450,30,259891
-11,53,159,-406,-1,259880
-71,70,94,-463,5,259855
-39,78,10,-543,20,259803
-77,54,124,-476,-26,259814
-98,45,245,-475,-11,259825
-84,68,216,-510,-74,259892
-92,79,178,-464,-18,259882
-103,75,192,-513,10,259820
-71,93,140,-523,-64,259877
-72,94,26,-476,-60,259889
-90,55,13,-520,-14,259910
-80,16,170,-527,-58,259874
-95,17,216,-522,-56,259811
-70,57,141,-484,-115,259868
-71,43,162,-429,30,259910
-76,35,183,-418,-12,259860
-60,66,143,-431,-122,259853
-78,63,52,-461,25,259926
-55,21,17,-427,-30,259791
-69,0,151,-416,-39,259820
-75,11,256,-404,-3,259851
-67,5,190,-436,31,259821
-32,4,199,-480,13,259905
-76,22,248,-462,32,259826
-51,50,232,-486,-10,259840
-35,29,126,-536,-26,259884
-48,1,103,-530,-50,259828
-49,6,192,-593,-37,259933
-28,22,208,-478,17,259874
-23,4,107,-443,-26,259829
-20,0,112,-487,-36,259872
-19,40,150,-479,-29,259862
-14,92,124,-506,0,259902
-30,77,32,-499,-41,259952
-14,49,70,-509,-69,259818
-50,45,213,-495,-50,259834
-41,49,165,-481,-19,259804
-14,43,78,-492,-47,259794
-4,42,161,-460,-23,259828
-30,43,136,-489,-39,259814
3,82,104,-500,15,259810
-33,70,35,-530,-22,259833
-13,30,22,-474,-43,259802
-17,9,100,-509,-43,259810
-47,-5,154,-501,-2,259909
-58,-46,167,-432,-57,259883
-25,-56,171,-363,-46,259788
-63,-40,98,-377,12,259754
-44,10,56,-512,19,259789
-44,-5,8,-496,-52,259768
-52,-38,41,-484,3,259847
-72,-43,93,-498,-81,259833
-71,-70,150,-524,-34,259816
-55,-116,121,-499,-79,259849
-77,-123,103,-512,-40,259820
-88,-122,121,-523,-58,259864
-75,-122,114,-524,-6,259860
-84,-132,39,-438,-44,259794
-108,-124,15,-452,3,259813
-103,-115,148,-450,29,259821
-130,-143,157,-500,-17,259817
-109,-134,120,-494,-5,259823
-124,-144,113,-513,-89,259860
-121,-147,125,-467,-62,259880
-123,-135,82,-416,-78,259872
-127,-125,19,-480,-26,259856
-155,-132,-12,-491,-71,259847
-143,-100,74,-486,-59,259849
-145,-63,23,-527,-45,259853
-121,-55,22,-465,-40,259838
-123,-64,132,-478,-52,259858
-119,-58,104,-459,-52,259859
-81,-39,-7,-452,-58,259838
-88,-80,-91,-431,36,259793
-100,-120,9,-433,-62,259863
-101,-103,111,-452,39,259918
-92,-70,35,-522,15,259837
-43,-51,-3,-514,-43,259848
-39,-40,137,-523,13,259950
-56,0,166,-510,9,259970
-21,23,51,-405,-47,259929
-19,13,40,-472,-18,259794
-49,-18,137,-502,-22,259845
-7,-21,202,-433,-66,259843
24,-26,104,-528,-31,259782
56,-30,109,-473,-26,259836
62,-37,186,-422,35,259891
100,14,121,-432,-50,259970
127,23,3,-458,-75,259973
96,14,-15,-471,-68,259922
79,-16,104,-504,-92,259918
92,-8,147,-452,-48,259960
110,10,73,-477,-17,259853
149,-29,97,-437,-29,259895
169,-55,200,-480,51,259985
186,-40,177,-507,23,259855
193,27,34,-559,-12,259842
198,-9,32,-488,4,259780
158,-17,84,-449,-50,259804
180,19,156,-488,-64,259908
171,10,50,-504,-14,259862
210,-19,86,-513,-3,259812
209,-18,194,-501,4,259755
213,5,139,-480,-70,259844
246,3,-5,-457,-68,259820
230,-14,46,-364,-10,259709
185,-5,99,-448,-42,259835
168,32,83,-470,11,259866
152,-3,69,-491,52,259720
152,-3,101,-417,-26,259808
141,22,220,-421,-26,259797
121,32,157,-488,-4,259834
192,37,32,-398,11,259882
169,-22,-1,-425,5,259815
139,-29,72,-469,16,259855
132,2,76,-475,5,259896
110,10,61,-462,20,259928
91,-1,30,-461,-11,259861
109,-20,148,-491,-30,259834
95,-25,140,-464,55,259911
117,30,44,-429,44,259812
140,13,-7,-452,-48,259728
127,16,116,-423,-36,259891
126,30,86,-509,-13,259869
160,63,6,-489,2,259842
141,76,18,-430,24,259824
148,79,154,-427,-93,259774
110,101,22,-473,-52,259887
170,112,-107,-481,62,259817
133,69,-85,-413,25,259703
118,64,21,-431,-51,259918
129,76,-3,-469,47,259879
167,84,-49,-503,23,259827
202,54,-48,-512,-46,259922
209,78,71,-485,-16,259797
167,110,44,-465,-45,259923
216,127,-45,-472,-29,259940
198,95,-26,-461,-47,259829
156,70,88,-472,17,259855
158,65,116,-456,-28,259809
167,113,53,-369,-85,259822
187,119,58,-492,-28,259861
181,144,213,-481,-31,259786
165,168,191,-508,-40,259793
183,167,36,-416,-104,259921
150,109,57,-453,-36,259840
111,53,212,-518,-27,259789
98,50,166,-499,-41,259829
118,64,43,-453,-72,259816
99,57,130,-438,-32,259868
67,81,264,-467,-28,259887
93,109,165,-509,35,259809
121,126,63,-487,-17,259834
86,113,203,-432,-73,259906
57,87,237,-449,-40,259878
87,88,157,-436,-38,259913
68,74,163,-466,-4,259891
75,84,224,-503,23,259907
80,91,193,-470,25,259830
56,117,93,-463,-18,259841
62,122,93,-462,26,259785
33,111,183,-447,-29,259788
-10,113,136,-530,-53,259974
-3,150,87,-461,-51,259867
-30,151,106,-470,-66,259784
-54,143,174,-469,-1,259806
-30,167,215,-504,-77,259845
-45,170,92,-452,-110,259782
-36,160,10,-479,-23,259735
-72,139,65,-495,-35,259868
-110,131,86,-502,-8,259825
-111,155,46,-452,-44,259888
-142,150,41,-529,-47,259725
-159,172,79,-438,-1,259737
-152,180,127,-462,14,259867
-176,149,-14,-536,-6,259939
-105,138,-57,-499,-11,259888
-166,126,28,-527,-16,259871
-199,87,11,-570,-5,259824
-155,90,-53,-514,-28,259902
-181,123,-38,-463,9,259746
-182,163,62,-506,-42,259903
-180,184,44,-476,-36,259858
-172,216,-77,-436,-48,259758
-122,220,-9,-426,-40,259774
-182,144,97,-439,-30,259842
-132,111,123,-490,49,259924
-116,113,83,-439,-4,259826
-121,119,91,-533,24,259738
-84,131,145,-524,-30,259694
-79,155,219,-505,-126,259872
-103,176,104,-521,-46,259820
-25,206,48,-414,-31,259821
-50,150,153,-295,-16,259868
-49,120,209,-443,20,259770
-38,123,160,-447,32,259812
-32,121,191,-543,-29,259828
-17,86,209,-462,10,259818
3,104,246,-441,3,259867
-10,117,181,-442,7,259905
13,98,138,-399,-55,259946
-21,68,208,-440,-17,259840
-54,45,185,-418,3,259871
-40,28,132,-430,4,259844
-57,16,172,-455,51,259785
-66,4,174,-439,20,259877
-72,20,123,-394,42,259921
-71,14,8,-434,-4,259896
-41,16,21,-462,41,259799
-86,8,132,-444,-53,259744
-100,14,161,-479,-55,259824
-90,17,141,-450,-37,259872
-109,33,195,-445,-17,259701
-68,68,271,-428,-33,259829
-81,103,274,-484,-17,259912
-89,99,152,-427,-24,259831
-62,122,168,-418,-20,259819
-116,101,211,-438,-41,259884
-109,48,143,-470,30,259938
-83,32,124,-436,92,259867
-114,62,177,-444,25,259847
-90,102,212,-509,62,259926
-88,90,168,-452,29,259957
-90,87,94,-497,5,259897
-65,81,103,-479,-7,259854
-80,46,106,-514,35,259885
-80,11,66,-532,10,259904
-57,-4,75,-455,-43,259947
-59,21,71,-406,-32,259880
-51,50,65,-461,60,259838
-67,44,92,-478,-50,259868
-79,52,53,-455,-109,259929
-56,66,11,-400,6,259844
-68,25,38,-403,-29,259776
-77,-38,38,-416,-29,259807
-45,-52,48,-487,-17,259810
-37,-12,51,-477,-76,259959
-32,-3,3,-499,-40,259898
-39,10,48,-459,-13,259851
-32,41,38,-420,5,259790
-25,39,-41,-536,-16,259852
-22,0,16,-474,4,259807
-52,-51,68,-513,-34,259866
-13,-52,44,-432,-99,259826
-10,-26,70,-494,-55,259798
6,-9,146,-442,-40,259821
10,-9,123,-488,-11,259783
12,-8,59,-470,53,259848
40,-8,121,-522,-3,259794
28,-34,189,-450,-28,259927
26,-80,91,-452,23,259947
54,-99,158,-505,-32,259759
20,-111,298,-441,-33,259846
37,-85,259,-507,-60,259877
69,-39,177,-511,-62,259865
62,2,226,-454,-42,259833
80,10,209,-484,4,259808
96,6,164,-460,-54,259840
46,-22,150,-527,-28,259875
77,-49,258,-506,-45,259886
41,-41,275,-501,12,259867
78,-31,202,-541,-5,259840
67,-43,159,-522,39,259870
56,-42,138,-497,30,259901
70,3,101,-490,35,259838
59,-10,22,-538,-14,259873
42,-48,37,-448,-13,259854
46,-54,83,-425,17,259830
4,-28,112,-450,20,259828
9,-40,96,-459,-55,259808
14,-58,112,-393,-78,259896
-39,-47,113,-399,-103,259921
-8,-25,98,-397,-8,259825
-26,-67,41,-424,-7,259860
-33,-96,-53,-440,1,259832
-30,-77,57,-485,16,259778
-57,-77,131,-475,22,259916
-42,-75,29,-483,-50,259899
-54,-70,-4,-429,7,259840
-70,-74,70,-490,-52,259850
-62,-83,51,-504,36,259809
-80,-112,-46,-419,-6,259857
-88,-122,-74,-402,-76,259846
-64,-132,-24,-525,4,259831
-55,-106,32,-455,-5,259823
-72,-67,-17,-488,-19,259812
-61,-46,10,-440,-20,259821
-67,-52,6,-519,-8,259857
-59,-9,23,-518,-15,259902
-46,-29,15,-501,-19,259923
-30,-91,41,-518,-30,259834
-20,-118,102,-475,-22,259842
20,-83,162,-540,40,259890
46,-60,91,-508,36,259843
63,-36,144,-482,-16,259831
42,1,185,-499,-35,259854
55,17,136,-459,14,259866
60,-41,89,-503,-16,259860
67,-84,126,-557,-52,259880
55,-104,232,-472,-40,259817
82,-102,225,-514,-11,259826
131,-106,142,-432,-36,259860
112,-87,128,-479,-101,259931
100,-35,141,-522,-15,259981
129,-25,130,-469,-86,259886
91,-56,76,-549,-30,259839
98,-65,35,-530,-59,259862
111,-93,103,-406,-37,259853
78,-103,153,-421,17,259931
109,-83,101,-403,23,259913
114,-49,64,-406,35,259965
100,-30,58,-382,37,259839
140,-15,41,-408,-64,259840
104,10,-29,-411,-8,259802
106,-11,-86,-445,-41,259802
90,-5,55,-467,-49,259821
62,37,175,-463,-91,259810
65,61,79,-473,76,260010
101,39,57,-515,-47,259863
67,42,145,-513,-62,259799
93,109,146,-467,-77,259803
83,85,-25,-378,55,259828
122,25,-60,-500,-43,259780
108,17,97,-419,-10,259792
81,55,208,-400,5,259840
98,58,125,-450,12,259936
103,77,96,-485,-10,259854
69,121,226,-495,-44,259920
89,153,178,-530,-40,259816
133,100,60,-435,12,259884
114,18,41,-384,-28,259868
128,6,227,-386,-60,259820
126,26,186,-497,-66,259917
143,26,60,-473,-97,259873
108,19,80,-442,4,259878
103,86,163,-462,-11,259944
94,125,7,-524,31,259844
109,91,-99,-461,45,259872
69,28,-44,-431,5,259852
85,28,66,-464,7,259845
107,40,19,-474,-49,259778
114,9,-35,-430,-83,259825
114,18,49,-459,-50,259834
96,70,90,-455,21,259807
101,107,-50,-472,59,259777
104,70,-55,-488,35,259839
69,30,-5,-447,-17,259773
103,51,-4,-497,-63,259825
133,99,-61,-492,-15,259743
148,95,-55,-469,-23,259768
152,123,71,-473,-14,259752
150,165,50,-470,-37,259822
158,188,-95,-503,-34,259830
162,170,8,-521,36,259888
100,90,59,-465,1,259972
149,92,93,-513,-87,260017
140,101,108,-488,-23,259867
166,106,179,-484,-5,259915
156,132,259,-412,-46,259942
138,204,223,-434,3,259881
173,225,138,-518,-53,259930
122,161,137,-515,-72,259901
83,106,195,-476,-5,259891
93,144,225,-446,-16,259911
56,141,173,-482,-17,259839
106,125,213,-493,-10,259839
65,155,318,-427,-31,259921
14,218,298,-499,-26,259829
69,252,90,-486,16,259825
40,204,-2,-421,-48,259781
-18,150,112,-477,-63,259822
-11,132,216,-538,-16,259941
-51,101,156,-496,38,259954
-18,96,76,-463,6,259917
-41,117,212,-425,-99,259815
-146,144,272,-495,-47,259814
-88,191,132,-543,18,259879
-98,172,-41,-533,21,259926
-103,127,7,-515,33,259783
-93,152,106,-485,2,259916
-98,176,110,-482,-30,259935
-128,134,-33,-439,1,259907
-97,130,64,-433,23,259739
-151,160,128,-460,28,259939
-123,181,-8,-481,-46,259896
-119,131,-171,-457,-68,259860
-109,76,-51,-489,-19,259835
-105,76,81,-493,-4,259817
-85,122,-9,-478,-11,259802
-65,97,-25,-425,3,259800
-110,90,154,-399,29,259879
-119,118,142,-485,-1,259882
-77,167,-64,-548,48,259868
-70,104,-11,-528,48,259825
-112,25,142,-526,-42,259874
-89,24,74,-535,-46,259808
-73,50,50,-429,-31,259834
-100,51,204,-466,3,259911
-96,82,289,-459,27,259853
-89,134,153,-535,7,259862
-69,177,113,-501,24,259832
-87,131,175,-462,46,259846
-80,64,199,-434,-36,259748
-127,94,197,-464,-64,259814
-72,99,107,-512,-36,259843
-67,94,104,-443,-14,259913
-72,118,264,-508,-2,259916
-114,188,211,-456,17,259898
-77,248,1,-516,16,259822
-63,235,108,-522,-18,259832
-98,168,311,-561,-32,259805
-90,124,194,-524,-89,259802
-56,106,75,-453,16,259734
-44,76,255,-392,-9,259816
-84,97,305,-415,-37,259831
-68,156,242,-447,-13,259869
-64,128,169,-508,-9,259867
-81,77,186,-404,27,259975
-100,101,243,-418,-20,259872
-87,133,298,-477,-49,259903
-68,97,284,-374,-55,259932
-30,76,181,-413,-62,259883
-30,103,172,-449,-40,259830
-70,78,146,-499,-5,259965
-36,38,75,-454,35,259880
-77,26,100,-452,-46,259743
-101,16,40,-541,-26,259786
-62,11,-35,-525,-2,259811
-61,-8,-25,-486,-50,259873
-40,-3,92,-515,-45,259879
-98,58,199,-508,8,259874
-96,72,123,-456,21,259965
-70,83,-11,-482,71,259840
-88,44,-4,-435,44,259846
-130,-29,10,-522,-32,259837
-73,-30,-35,-524,-28,259748
-104,-29,-27,-444,3,259828
-64,-37,121,-457,30,259842
-52,-18,231,-420,-6,259845
-83,11,190,-487,-48,259909
-30,43,115,-540,-17,259889
-49,-16,117,-451,-31,259782
-37,-71,172,-526,-17,259795
-16,-105,134,-442,-26,259887
9,-142,37,-464,-35,259847
4,-154,122,-484,-28,259751
-25,-124,210,-439,-19,259910
-37,-78,130,-411,-25,259877
7,-85,2,-437,-38,259770
-16,-105,95,-485,-93,259781
-40,-100,157,-522,-67,259808
4,-98,-4,-474,-40,259923
17,-121,-5,-438,29,259926
10,-134,117,-443,-17,259949
1,-94,142,-418,49,259816
59,-76,76,-461,7,259783
72,-64,13,-473,-22,259815
49,-61,57,-432,-19,259880
82,-61,58,-498,-36,259757
94,-68,41,-507,-86,259894
106,-59,109,-498,-35,259874
136,-29,191,-465,11,259919
148,8,174,-445,-96,259847
127,39,107,-467,-10,259848
109,46,104,-481,26,259932
77,16,150,-500,-7,259796
38,-16,152,-478,-58,259867
69,-52,112,-520,6,259909
81,-74,136,-497,4,259864
94,-92,214,-462,36,259900
91,-79,260,-487,51,259919
66,-47,199,-499,-12,259748
82,-9,103,-458,-2,259700
59,-36,120,-508,17,259854
43,-70,117,-514,33,259823
50,-66,46,-502,34,259966
57,-71,43,-484,-6,259840
52,-76,88,-486,-20,259756
33,-43,83,-486,-77,259838
11,-12,22,-516,-26,259846
20,-27,4,-530,-42,259911
-16,-68,47,-453,-9,259911
-32,-99,0,-486,-2,259837
-9,-103,-26,-541,4,259794
-21,-133,-12,-499,7,259799
-13,-131,44,-510,-47,259808
-44,-107,52,-485,1,259799
-42,-116,19,-404,-47,259823
-33,-107,-55,-508,-30,259820
-34,-93,-3,-494,-48,259802
-32,-99,4,-488,-37,259845
-15,-111,-28,-480,-5,259828
-23,-90,-3,-517,17,259876
-23,-55,77,-479,-19,259777
-18,-33,68,-451,-51,259822
12,-12,79,-459,-25,259841
8,-40,115,-547,-44,259815
32,-61,161,-513,43,259869
27,-70,121,-426,8,259867
58,-70,56,-417,-43,259809
50,-76,71,-428,-34,259845
50,-101,128,-400,9,259781
42,-80,139,-411,30,259786
50,-35,97,-395,-21,259806
41,-13,95,-487,-43,259871
27,-8,151,-424,-46,259930
38,-12,132,-471,-62,259897
47,-28,48,-535,-35,259869
79,-33,124,-520,14,259909
75,-37,204,-471,9,259957
104,23,192,-468,-46,259848
83,81,148,-444,-53,259813
76,97,163,-488,5,259809
60,80,213,-485,-56,259832
11,49,161,-429,-27,259837
30,31,43,-499,-9,259849
58,24,95,-400,10,259840
74,21,106,-472,-63,259868
94,50,33,-435,-25,259824
98,75,-31,-481,-21,259791
86,90,4,-520,-34,259726
53,103,26,-441,-2,259838
31,73,13,-440,22,259891
48,42,46,-385,-11,259901
29,42,106,-465,10,259898
48,66,133,-481,-28,259903
61,89,36,-419,-49,259771
89,99,16,-531,-43,259754
60,112,124,-466,-19,259845
55,108,151,-511,37,259861
55,77,15,-497,-71,259855
68,83,39,-541,-17,259884
25,71,133,-510,11,259803
51,79,162,-462,-4,259805
34,92,120,-457,-44,259923
38,132,160,-451,-4,259846
53,139,158,-433,-39,259921
69,104,131,-459,15,259889
51,65,91,-453,-8,259853
64,46,128,-457,-17,259833
44,32,137,-550,-60,259919
41,41,80,-455,-11,259822
57,62,85,-468,-14,259696
57,73,100,-471,-34,259749
83,77,103,-510,-57,259886
78,94,53,-425,-85,259830
91,91,-36,-450,-79,259816
105,57,-119,-472,-97,259828
129,41,-69,-415,3,259903
102,64,-64,-468,-3,259876
115,83,-92,-544,-21,259802
92,105,-53,-504,-93,259839
118,104,76,-420,6,259903
109,93,87,-512,-12,259825
115,91,32,-464,-87,259814
144,88,102,-471,-20,259744
159,73,150,-465,2,259875
147,85,93,-454,-11,259821
174,123,53,-426,-38,259761
145,144,61,-472,-21,259857
121,169,77,-500,-42,259892
100,150,63,-412,-71,259864
100,133,55,-499,-31,259868
89,118,110,-484,-35,259841
72,144,205,-484,48,259871
99,173,172,-461,52,259800
128,224,160,-410,-26,259758
96,242,234,-397,-46,259823
101,244,241,-491,-22,259840
86,251,214,-477,-19,259791
66,223,210,-461,-28,259792
48,197,260,-461,-21,259828
47,205,257,-550,-48,259861
63,238,179,-517,-35,259877
49,279,145,-493,-69,259801
-1,304,211,-492,-31,259773
4,327,200,-366,-53,259824
-5,286,79,-505,1,259846
-40,214,91,-521,-21,259822
-76,183,159,-527,-33,259866
-41,166,131,-478,103,259824
-55,166,4,-504,47,259859
-49,206,28,-492,-26,259910
-70,250,68,-417,40,259834
-45,265,35,-553,69,259813
-53,228,-38,-382,-23,259728
-65,210,-18,-354,-23,259871
-75,170,-9,-522,-51,259981
-55,118,-51,-497,6,259836
-62,98,-101,-415,23,259829
-70,108,-37,-504,22,259874
-72,93,0,-441,-44,259868
-67,93,-27,-481,-51,259860
-86,68,-57,-469,-116,259829
-116,49,8,-435,-84,259813
-131,46,133,-436,-34,259811
-134,61,154,-460,-32,259845
-92,64,118,-499,2,259852
-83,50,188,-403,-60,259723
-97,68,311,-407,-15,259768
-52,63,289,-454,51,259792
-39,29,207,-482,29,259818
-57,12,185,-439,-13,259802
-42,1,242,-451,-65,259872
-48,-16,235,-448,12,259903
-25,-33,166,-486,64,259831
-11,23,195,-482,25,259836
-55,96,267,-469,1,259784
-42,75,208,-441,-37,259857
-7,17,187,-409,-6,259845
-70,2,290,-469,-6,259791
-41,-13,282,-415,-16,259851
-35,-35,244,-418,-10,259870
-30,-32,215,-492,-5,259718
-46,16,194,-443,26,259903
-48,76,212,-413,-29,259929
-36,75,239,-450,-6,259718
-30,42,113,-427,-4,259837
-17,16,84,-473,50,259876
-36,1,193,-466,-48,259832
-39,2,161,-465,25,259855
-8,4,-13,-500,26,259774
0,44,26,-495,21,259762
-37,66,112,-489,18,259778
-30,82,31,-504,28,259863
-33,76,-69,-499,6,259841
-64,43,-7,-367,-60,259887
-77,59,40,-459,1,259851
-64,55,-52,-468,-26,259850
-38,43,-75,-416,37,259791
-57,43,-36,-415,-2,259803
-50,72,-43,-415,-30,259809
-48,86,-39,-490,-38,259825
-83,33,25,-554,47,259799
-94,-38,74,-492,-45,259831
-90,-24,150,-464,-4,259794
-94,-17,162,-421,33,259774
-85,-20,129,-454,1,259876
-81,21,167,-540,-25,259938
-78,56,245,-506,-25,259822
-66,72,148,-410,19,259861
-51,20,72,-481,18,259801
-92,-43,139,-451,40,259749
-115,-67,229,-466,25,259828
-108,-85,119,-434,-20,259828
-75,-106,68,-461,-5,259902
-104,-125,160,-387,8,259812
-78,-78,202,-528,12,259866
-75,-56,27,-451,-9,259855
-57,-107,4,-429,-19,259825
-86,-156,132,-464,58,259848
-67,-139,110,-541,-74,259812
-38,-117,7,-530,31,259838
-42,-128,53,-480,-18,259863
-50,-123,129,-429,0,259813
-7,-65,121,-476,-55,259775
-24,-71,43,-466,36,259836
7,-100,79,-363,-48,259854
-4,-144,121,-436,-25,259833
6,-127,126,-429,-5,259845
6,-136,110,-438,25,259900
17,-163,68,-422,18,259790
28,-159,121,-472,-65,259751
28,-119,167,-474,10,259838
8,-106,138,-425,25,259896
24,-153,98,-423,-19,259796
1,-165,175,-426,-105,259830
-3,-126,205,-484,-51,259859
14,-109,132,-495,12,259871
46,-114,116,-371,76,259904
43,-75,202,-472,0,259836
27,-34,93,-481,18,259860
71,-16,-10,-496,-6,259796
59,-87,4,-468,17,259781
-7,-135,50,-450,13,259863
7,-114,87,-506,-13,259847
11,-149,103,-532,5,259903
2,-171,90,-481,-22,259823
32,-133,119,-467,-21,259844
36,-58,143,-506,-73,259856
29,-47,61,-431,-6,259841
28,-63,100,-465,-84,259786
2,-68,232,-521,-144,259800
-6,-58,185,-459,-84,259770
33,-78,114,-467,1,259876
8,-120,103,-482,16,259846
5,-87,210,-454,-80,259765
18,-25,158,-409,-47,259766
49,-15,37,-426,-17,259830
53,-36,16,-480,-21,259855
28,-45,98,-453,-105,259837
31,-39,91,-535,-20,259774
68,-61,54,-486,-11,259809
37,-109,73,-415,-36,259926
39,-76,186,-462,53,259816
37,-45,62,-501,41,259883
58,-58,-79,-465,-22,259860
36,-89,-8,-522,-11,259801
15,-94,111,-475,-26,259888
35,-51,58,-493,-27,259994
27,-20,6,-487,-68,259874
33,0,78,-477,51,259832
36,50,96,-496,53,259797
36,83,-34,-479,70,259831
62,95,-28,-470,36,259804
21,27,64,-500,12,259745
23,-25,86,-467,-9,259815
42,-13,33,-425,41,259872
29,-30,-8,-414,3,259876
35,-31,35,-485,-45,259831
33,29,167,-443,-22,259806
32,101,154,-500,-24,259857
58,120,36,-489,63,259822
71,71,127,-439,21,259829
73,-14,208,-494,-49,259829
35,-3,104,-457,-117,259856
122,-17,-33,-448,-85,259830
96,-30,57,-453,-100,259788
91,-9,143,-450,-60,259800
125,30,68,-514,-26,259863
127,66,-8,-462,-32,259898
137,48,64,-516,-71,259885
139,15,104,-456,-35,259916
134,-12,41,-462,-32,259878
173,-16,41,-503,-103,259856
175,-9,46,-497,-44,259953
172,21,47,-500,-18,259924
149,55,-14,-501,-45,259886
140,81,-56,-438,4,259864
118,65,-52,-393,9,259758
123,50,22,-491,-21,259809
100,73,67,-458,-33,259888
138,120,118,-470,-31,259958
121,146,127,-444,-24,259922
140,172,207,-462,9,259826
125,187,161,-493,-35,259849
149,201,95,-427,-70,259896
113,175,67,-443,-2,259898
128,140,96,-529,21,259888
108,100,103,-525,44,259868
120,108,96,-456,-65,259807
133,118,117,-458,-60,259846
95,149,135,-502,-74,259888
96,199,74,-415,-54,259917
104,225,64,-517,-21,259729
63,218,99,-458,-54,259746
74,211,176,-469,-39,259853
49,203,89,-448,-67,259951
57,189,77,-486,-100,259864
61,196,152,-440,-19,259841
23,247,204,-488,40,259842
26,299,118,-551,-11,259769
62,319,110,-498,8,259873
26,262,193,-440,-1,259887
31,234,235,-513,-39,259790
26,233,128,-485,-42,259892
63,211,103,-451,-71,259867
20,215,178,-450,-53,259909
6,259,204,-514,-61,259810
17,285,122,-473,-13,259877
-7,292,96,-461,-65,259880
-33,262,166,-539,-21,259867
-35,234,168,-471,-5,259849
-39,184,23,-502,-30,259868
-2,137,41,-478,4,259758
-43,115,104,-453,-11,259970
-38,97,88,-428,-3,259929
-25,112,-5,-515,-40,259921
-41,107,23,-391,-6,259872
-70,40,81,-392,-8,259917
-46,31,-26,-496,-56,259885
-38,49,-71,-543,-21,259845
-30,41,50,-519,-6,259862
-47,63,198,-478,-76,259963
-36,105,185,-516,-3,259866
-65,143,146,-550,31,259814
-61,94,185,-507,25,259805
-46,75,195,-490,-33,259809
-57,91,105,-462,-20,259883
-50,85,43,-476,-2,259917
-25,97,145,-473,18,259825
-30,125,163,-485,11,259925
-34,186,83,-505,-13,259883
-24,229,80,-496,14,259860
-51,201,158,-511,6,259886
-72,176,153,-490,-56,259889
-67,159,132,-460,-11,259864
-71,130,104,-519,-62,259824
-72,176,175,-504,-54,259756
-82,201,176,-410,-23,259939
-63,252,211,-424,-40,259941
-101,271,88,-460,-23,259869
-67,296,101,-440,-13,259879
-118,251,136,-448,11,259863
-124,178,130,-462,-6,259958
-118,136,41,-492,-38,259942
-124,143,83,-485,9,259847
-148,132,79,-457,48,259905
-116,204,136,-421,-4,259903
-163,224,23,-424,-8,259906
-112,217,76,-426,48,259768
-132,174,163,-461,-25,259831
-138,153,78,-491,-33,259829
-110,173,-5,-537,-85,259919
-107,171,-33,-469,-33,259860
-75,182,161,-459,2,259844
-85,196,139,-446,-72,259817
-46,246,143,-487,-28,259799
-64,215,76,-511,43,259821
-17,156,84,-459,55,259871
-26,109,101,-384,-14,259915
-26,100,50,-512,-72,259888
-3,77,-84,-494,-31,259872
-9,62,86,-507,-7,259961
-32,47,188,-469,-66,259930
9,37,129,-480,28,259895
-6,47,65,-477,7,259849
13,21,171,-436,-31,259865
18,-32,111,-466,-28,259871
46,-89,84,-515,-15,259907
28,-79,166,-501,-49,259879
40,-67,143,-456,-6,259832
55,-56,150,-471,-2,259829
18,-47,211,-433,-22,259822
35,-51,242,-468,-17,259966
45,-47,184,-461,86,259891
15,-83,37,-391,19,259843
73,-86,144,-445,-10,259802
20,-124,165,-427,19,259878
33,-78,67,-481,-51,259900
36,-9,121,-500,-61,259835
-36,5,109,-454,47,259727
15,16,252,-433,37,259826
-18,-29,157,-450,-20,259772
22,-47,19,-519,-19,259804
13,-44,73,-493,4,259763
20,-43,151,-487,-40,259845
46,-26,28,-453,-31,259869
47,2,8,-446,-4,259873
18,-2,76,-471,40,259863
39,-8,155,-493,-52,259867
5,-68,-6,-489,-31,259947
90,-119,-5,-460,30,259928
16,-187,57,-484,48,259866
47,-178,152,-479,-15,259775
83,-148,96,-458,-47,259834
79,-115,99,-476,6,259839
54,-102,193,-496,-34,259883
43,-102,244,-447,-33,259884
39,-115,76,-478,-55,259808
84,-156,30,-485,72,259828
47,-209,72,-467,14,259859
81,-204,172,-520,-68,259812
93,-162,91,-455,36,259824
91,-112,76,-466,42,259863
54,-85,196,-482,-23,259859
30,-76,244,-470,31,259908
52,-110,78,-451,19,259913
44,-150,-31,-531,-89,259816
10,-175,134,-541,-83,259825
31,-177,157,-469,5,259966
53,-139,-36,-484,-10,259868
68,-75,53,-500,11,259847
-5,-48,184,-389,-21,259872
25,-19,140,-502,-24,259808
6,-27,73,-483,-31,259848
20,-82,19,-510,-62,259827
-9,-110,51,-517,-86,259877
9,-125,39,-437,-86,259825
17,-121,30,-466,-34,259829
43,-107,-3,-428,0,259797
23,-111,106,-398,55,259842
21,-110,185,-467,-65,259895
10,-145,101,-467,-33,259900
34,-191,2,-510,16,259853
54,-214,98,-435,-49,259879
48,-204,90,-411,-80,259880
89,-145,26,-450,-2,259885
67,-115,-1,-393,34,259780
76,-101,87,-487,2,259871
77,-96,117,-478,8,259835
72,-129,-8,-484,-66,259920
77,-159,-54,-490,-32,259807
70,-187,-8,-494,-23,259854
56,-189,63,-502,37,259849
94,-152,5,-492,-2,259875
53,-122,26,-510,46,259853
27,-103,132,-512,51,259867
55,-82,134,-476,31,259890
5,-97,10,-519,18,259756
51,-133,51,-483,-19,259777
5,-174,154,-470,-39,259767
3,-155,50,-453,-9,259877
27,-106,-13,-468,-27,259870
-39,-85,109,-422,-70,259826
-58,-30,168,-446,-46,259913
-24,8,56,-519,-34,259922
-60,-34,63,-499,27,259869
-93,-81,134,-459,60,259859
-70,-67,146,-428,-31,259898
-89,-62,100,-485,-45,259827
-67,-45,146,-432,-13,259839
-96,-4,216,-376,-86,259870
-102,59,266,-499,42,259858
-122,53,205,-557,60,259880
-131,8,39,-458,-6,259826
-99,-41,41,-457,22,259773
-139,-53,164,-451,-11,259850
-61,-22,104,-470,-44,259887
-54,-17,-31,-405,-20,259865
-45,15,118,-501,-16,259850
-41,29,258,-408,-17,259934
-58,49,216,-465,-57,259866
-20,14,140,-479,-103,259887
-47,-42,100,-486,25,259860
-15,-43,113,-451,18,259787
14,13,100,-447,19,259801
21,30,68,-520,35,259751
6,28,159,-516,-9,259749
15,97,211,-484,-15,259842
15,88,126,-533,-77,259734
75,41,3,-432,-68,259825
41,15,22,-411,-46,259897
-14,9,22,-500,64,259907
39,34,-87,-436,66,259922
43,38,-68,-416,42,259823
17,64,63,-405,-66,259866
-2,82,46,-464,-82,259851
5,96,-31,-467,37,259818
0,119,97,-469,40,259867
-60,91,136,-496,-36,259899
17,84,222,-444,-35,259876
2,76,108,-422,-79,259806
55,96,10,-428,-16,259835
-6,129,156,-403,-20,259823
17,185,205,-510,-13,259891
67,210,72,-470,-23,259905
61,143,63,-477,33,259790
65,81,93,-506,-45,259869
64,72,90,-497,21,259821
64,99,-23,-451,0,259820
121,144,93,-390,-97,259787
108,170,265,-451,-12,259841
105,173,191,-507,23,259810
125,160,38,-472,16,259875
107,127,52,-543,-3,259901
42,131,151,-513,-65,259903
89,152,167,-476,-64,259895
106,130,101,-425,-50,259874
115,119,67,-396,-21,259837
84,139,83,-471,25,259822
103,172,183,-511,-21,259909
99,209,147,-465,33,259988
101,213,144,-414,14,259844
83,146,146,-440,-14,259868
111,113,226,-416,-48,259805
93,196,150,-387,4,259790
98,224,81,-449,9,259830
59,188,258,-467,34,259815
87,298,316,-460,-4,259774
-26,423,76,-468,6,259723
58,428,161,-381,64,259772
50,211,180,-416,-3,259901
-40,192,117,-409,-110,259856
44,203,42,-437,-22,259894
250,162,-119,-451,-26,259833
-61,201,-108,-383,-124,259788
-121,354,179,-476,-57,259750
89,328,-25,-453,33,259975
44,183,-128,-490,24,259818
-151,147,304,-455,-7,259722
235,303,222,-481,-21,259882
129,179,-214,-366,58,259929
-117,121,186,-432,-104,259854
168,236,434,-547,-66,259869
6,197,121,-395,52,259916
-77,213,259,-454,-41,259757
53,272,132,-502,22,259844
204,239,120,-471,4,259844
-37,160,78,-452,-39,259850
47,161,-5,-469,-56,259864
98,187,83,-434,35,260000
-19,160,-27,-436,36,259951
26,150,-254,-444,42,259891
120,193,19,-403,-82,259883
-73,190,191,-450,2,259957
-60,292,-37,-491,-7,259797
94,231,-18,-417,42,259833
-44,124,163,-413,34,259824
21,236,39,-501,-64,259801
15,289,95,-479,6,259800
0,184,213,-575,-72,259927
-30,190,7,-527,-49,259760
-28,267,288,-436,0,259703
-130,178,109,-438,37,259756
-66,65,-200,-481,10,259840
-45,23,172,-491,-66,259845
-220,54,69,-520,-46,259794
63,217,-118,-620,-79,259792
-106,227,188,-427,23,259789
-173,168,191,-510,-54,259939
-7,226,-127,-418,-149,259851
-103,166,131,-424,18,259788
-188,56,256,-479,-12,259887
-57,91,75,-490,-105,259801
-69,134,166,-383,-14,259819
-114,158,322,-437,81,259837
-27,169,248,-452,-27,259853
-68,182,203,-416,8,259870
-67,138,316,-566,-34,259841
-97,71,257,-514,-17,259966
-53,54,151,-454,2,259853
-47,25,153,-447,70,259831
-73,-1,236,-427,1,259883
-63,30,250,-440,-34,259903
-81,110,86,-461,30,259788
-22,134,161,-508,54,259899
-120,113,309,-395,88,259944
-36,95,84,-457,68,259916
-14,59,130,-422,-23,259870
-43,-9,168,-490,-78,259920
29,-41,150,-525,-69,259809
-15,-44,185,-465,-19,259827
-43,-19,207,-496,-35,259863
-48,-2,0,-498,-30,259924
10,-84,-40,-456,-23,259861
-74,-151,5,-426,-25,259873
-15,-91,4,-442,-69,259892
-74,-97,-132,-463,3,259845
13,-45,-211,-465,51,259860
-29,20,55,-471,55,259766
-59,51,85,-461,8,259852
52,42,-149,-474,48,259842
7,21,6,-467,-2,259820
-57,25,157,-529,-51,259805
-21,-16,-27,-591,-99,259812
44,-45,-40,-487,-61,259755
-76,-47,203,-411,-91,259965
6,41,175,-490,5,259917
-10,34,34,-485,46,259932
-41,-7,-8,-473,-91,259875
23,-4,218,-554,-25,259744
-97,-29,261,-412,-51,259792
-19,-39,-30,-470,-18,259963
29,-97,51,-460,-38,259831
-48,-105,263,-497,-25,259901
-50,-54,169,-454,24,259945
41,-29,69,-513,-66,259937
-30,-69,220,-575,24,259846
-91,-47,374,-530,-2,259866
-64,-93,163,-492,-12,259847
-14,-171,88,-507,-3,259792
-9,-187,184,-458,-52,259814
-18,-162,211,-398,-10,259898
26,-156,132,-436,21,259939
-17,-145,232,-439,-5,259925
-50,-143,265,-464,18,259927
-16,-129,108,-486,-28,259913
-2,-149,-87,-463,-50,259876
24,-164,-17,-557,9,259975
22,-183,29,-540,-14,259887
94,-100,-21,-491,-14,259911
86,11,-37,-391,-9,259849
115,42,6,-508,-34,259798
83,-7,44,-492,-4,259882
93,-43,-18,-502,-105,259839
72,-60,-14,-559,-70,259870
81,-158,-69,-478,-32,259910
101,-192,42,-430,-45,259840
129,-118,88,-545,-28,259953
119,-103,194,-521,-38,259931
158,-140,3,-458,-1,259869
240,-136,-30,-440,-39,259832
175,-138,107,-464,-53,259985
198,-156,96,-466,-29,259911
206,-217,-120,-466,-36,259781
255,-223,8,-504,-50,259754
164,-217,185,-514,21,259869
230,-168,112,-511,1,259890
222,-109,3,-441,6,259812
209,-73,162,-429,0,259882
169,-85,190,-507,5,259864
213,-124,-22,-503,-5,259785
177,-133,-7,-451,48,259914
176,-129,191,-521,41,259818
148,-135,81,-491,21,259825
192,-68,1,-439,-44,259899
138,-32,206,-419,-30,259928
130,-41,250,-489,-99,259836
104,-50,129,-431,-41,259888
95,-81,53,-464,-7,259846
79,-160,222,-433,4,259836
58,-213,219,-507,-53,259861
106,-131,146,-518,-63,259880
61,-111,132,-469,-32,259931
34,-138,268,-550,-76,259905
17,-165,210,-489,-68,259797
16,-151,144,-449,-47,259831
-23,-189,21,-472,43,259829
-26,-244,74,-471,-32,259891
-11,-226,25,-438,-24,259827
-24,-142,148,-445,-51,259844
-85,-147,55,-457,-33,259899
-6,-140,85,-464,-55,259785
-39,-108,76,-426,-3,259855
-52,-110,36,-481,-96,259883
-8,-167,-19,-519,-24,259826
-56,-182,3,-483,-19,259901
-42,-136,7,-485,-16,259883
-8,-79,31,-492,-12,259904
-92,-60,-28,-415,7,259894
-29,48,39,-446,11,259859
-99,100,38,-505,63,259904
-98,66,2,-510,81,259869
-60,45,-41,-445,-38,259810
-71,45,-45,-483,16,259801
-35,73,-18,-502,16,259882
-39,96,-47,-508,-18,259853
-16,116,13,-410,-5,259850
-8,121,27,-425,30,259912
-28,100,73,-524,42,259913
-15,118,109,-460,4,259923
-8,104,0,-483,-47,259882
-3,74,30,-489,-25,259884
-20,44,118,-509,-72,259903
23,58,46,-491,-18,259955
54,85,69,-488,-51,259735
-9,108,264,-411,-51,259852
-33,123,212,-515,-14,259842
9,107,267,-493,-29,259868
-78,23,192,-440,-110,259805
-22,24,243,-536,-37,259756
-45,11,253,-472,-22,259737
6,31,275,-462,-15,259748
-11,68,353,-464,10,259780
-13,117,354,-416,-93,259806
-37,106,292,-438,17,259869
-45,89,318,-503,17,259871
-59,105,202,-508,2,259848
-26,155,33,-481,54,259816
-104,132,31,-457,106,259784
-65,83,158,-473,-5,259836
-85,133,123,-491,15,259899
-57,200,175,-499,2,259888
-97,219,55,-474,5,259883
-109,204,49,-450,-26,259884
-107,139,22,-542,-22,259893
-101,103,16,-499,4,259993
-115,68,111,-516,7,259872
-108,111,104,-509,18,259855
-136,149,129,-424,64,259891
-110,175,198,-537,-64,259897
-170,228,223,-521,-8,259887
-136,193,66,-473,-29,259821
-91,170,-55,-487,8,259830
-116,154,-8,-433,-8,259820
-130,134,15,-472,-46,259789
-57,110,-29,-487,-14,259814
-116,104,-23,-470,-12,259764
-103,142,135,-489,-92,259866
-3,186,393,-488,2,259933
-99,181,90,-422,-23,259900
38,236,-284,-493,-10,259923
-13,185,222,-433,-59,259824
-187,119,231,-530,20,259943
33,175,-103,-609,22,259980
16,260,153,-394,75,259790
-41,285,277,-493,-12,259929
72,340,23,-548,-44,259853
-39,190,3,-431,-17,259723
13,153,182,-443,-8,259732
-8,243,128,-450,-15,259796
-13,247,70,-473,-45,259662
44,143,127,-485,59,259915
51,130,115,-534,-62,259793
38,270,90,-461,-91,259863
39,348,201,-434,29,259829
38,270,70,-434,-32,259918
178,253,211,-445,-65,259821
11,163,198,-495,59,259755
111,87,88,-479,20,259807
96,84,-9,-443,6,259791
4,177,98,-494,-22,259866
69,210,270,-544,-18,259852
51,160,277,-530,12,259820
80,190,215,-504,1,259809
36,173,179,-578,6,259798
35,43,120,-462,26,259942
161,33,219,-465,-2,259898
51,91,143,-421,-11,259881
117,134,188,-586,38,259806
136,46,241,-499,-15,259824
65,67,206,-483,8,259794
78,109,57,-572,71,259873
123,94,90,-487,-14,259762
58,64,201,-517,-89,259790
97,140,163,-476,-63,259799
90,129,-7,-449,6,259784
127,145,170,-472,10,259794
-21,174,283,-531,-3,259841
-30,159,86,-465,79,259865
56,181,-1,-449,-61,259878
-63,92,156,-472,6,259770
-68,29,49,-618,-10,259851
11,50,-86,-446,-11,259782
-39,96,123,-414,19,259753
-114,180,181,-452,68,259812
-5,231,138,-524,63,259835
-18,191,-20,-466,12,259890
34,169,121,-388,-20,259839
-83,65,137,-486,5,259847
23,10,-62,-533,-76,259837
51,104,-180,-467,-67,259803
6,151,20,-472,3,259860
-28,111,35,-503,-1,259939
81,166,-11,-562,-20,259888
-36,231,107,-446,-74,259805
-23,184,-69,-486,-24,259929
51,25,-69,-507,-28,259808
-46,-10,28,-501,-10,259880
18,156,-85,-508,7,259865
43,171,-299,-446,39,259768
69,150,-108,-449,-6,259818
8,186,197,-533,8,259853
44,220,-49,-500,12,259862
102,178,-198,-499,38,259748
43,109,69,-417,1,259787
-9,113,209,-460,-19,259865
103,163,96,-451,-32,259834
73,109,94,-445,-23,259731
56,65,257,-430,-11,259765
117,124,272,-477,-9,259830
55,140,226,-429,23,259897
54,54,208,-488,-36,259874
39,-36,220,-449,-33,259781
34,-58,189,-467,41,259805
-23,-65,126,-510,-26,259737
-8,-84,88,-510,-10,259801
38,-11,149,-481,-45,259799
-46,51,238,-470,-32,259829
41,26,126,-460,16,259880
92,-33,140,-472,-1,259855
25,-97,300,-460,-43,259891
26,-153,303,-509,-11,259910
66,-183,58,-486,-1,259865
64,-154,196,-452,-29,259878
-46,-105,224,-507,-4,259913
18,-66,127,-478,79,259852
25,-100,133,-458,65,259848
27,-131,123,-478,3,259835
29,-145,-56,-582,-20,259841
48,-99,-175,-446,-69,259879
11,-40,-83,-436,-16,259864
22,-85,42,-478,15,259817
-17,-36,9,-475,-30,259828
2,59,186,-490,8,259829
-46,32,217,-500,-16,259937
-17,-49,130,-467,-67,259786
-11,-47,213,-417,-49,259868
-17,-36,151,-475,10,259935
61,-84,40,-507,18,259870
22,-104,-169,-397,17,259862
39,-95,4,-443,20,259846
-21,-147,184,-441,1,259882
-2,-182,-32,-497,-99,259819
24,-157,-151,-504,-43,259908
-19,-210,-22,-585,-8,259913
14,-251,122,-537,-7,259942
60,-212,17,-504,-61,259922
70,-105,-153,-468,-22,259854
70,-85,-63,-487,-52,259865
36,-93,93,-470,-90,259904
29,-87,159,-521,26,259798
82,-184,72,-409,-20,259916
23,-225,-2,-388,-100,259898
80,-133,-58,-501,-32,259843
60,-123,-55,-470,8,259785
56,-122,-72,-413,-12,259793
106,-32,62,-417,-51,259851
89,1,115,-451,75,259904
183,-57,188,-482,50,259844
99,-62,227,-473,-39,259890
131,-17,255,-440,-18,259899
136,-94,259,-434,0,259952
177,-147,281,-463,-11,259927
164,-54,277,-434,13,259862
163,28,279,-425,30,259843
191,-79,325,-472,44,259844
164,-86,370,-429,-55,259913
129,-25,307,-465,-39,259846
156,-34,252,-564,-13,259951
147,-145,195,-500,-57,259859
122,-167,241,-414,-110,259819
131,-109,230,-513,-22,259869
119,-131,155,-429,44,259841
122,-88,128,-472,23,259823
115,-66,150,-495,-24,259774
91,-75,204,-472,23,259758
68,-140,178,-485,28,259772
53,-157,21,-442,22,259817
86,-107,-78,-517,-4,259769
8,-100,87,-468,57,259880
5,-39,70,-495,45,259860
13,17,13,-420,74,259870
-18,16,-77,-464,36,259770
2,11,-28,-451,29,259787
-43,-9,10,-443,-12,259981
-45,-33,-236,-487,3,259759
-24,-40,-286,-478,-97,259800
-90,10,-109,-485,-24,259853
-106,83,-65,-509,50,259836
-79,63,-99,-521,45,259859
-77,22,-32,-488,-18,259868
-119,16,4,-486,-36,259863
-87,-11,-22,-397,-20,259844
-69,-48,-76,-427,-6,259825
-74,-49,-31,-424,7,259883
-116,-23,-15,-489,0,260036
-82,-40,37,-505,10,259848
-102,2,46,-477,-40,259832
-139,54,63,-517,33,259869
-86,30,79,-515,47,259871
-75,-38,78,-506,-48,259875
-69,-50,74,-454,-34,259882
-59,-14,88,-504,10,259883
-50,-4,90,-507,35,259935
-49,88,199,-559,-47,259922
-62,163,191,-540,-27,259887
-58,136,204,-499,22,259828
-114,106,276,-467,-12,259807
-80,106,289,-431,-56,259848
-88,42,171,-527,-31,259734
-67,43,137,-536,-68,259851
-71,107,211,-504,-34,259804
-81,196,179,-528,35,259798
-59,208,70,-431,47,259852
-67,139,103,-471,-14,259867
-80,109,269,-533,3,259894
-96,42,170,-470,-28,259868
-72,34,15,-457,17,259777
-99,68,176,-467,-15,259803
-119,91,244,-468,-1,259877
-70,99,167,-521,-22,259904
-94,65,85,-479,-85,259872
-95,83,178,-463,-69,259880
-117,74,217,-472,12,259863
-95,17,53,-524,31,259956
-54,-38,-38,-441,-68,259865
-70,-29,100,-403,3,259845
-97,31,77,-434,11,259893
-34,93,159,-523,10,259849
-110,100,185,-487,23,259795
-40,156,192,-492,-15,259948
-66,189,226,-444,-7,259956
-74,147,253,-387,-24,259834
-43,91,173,-447,-32,259857
-24,110,153,-511,-16,259825
-63,156,241,-425,-53,259845
-69,235,356,-516,-28,259876
-144,226,259,-478,-52,259897
-71,194,220,-472,-13,259847
-52,223,370,-451,-3,259832
-154,159,420,-424,-35,259841
-123,42,166,-622,-3,259804
12,81,204,-486,-48,259851
-79,209,267,-481,-3,259839
-95,140,236,-522,-23,259800
7,51,41,-478,-56,259915
25,116,155,-453,-10,259780
-105,170,165,-468,6,259759
-15,-2,-26,-506,-7,259816
29,-140,-39,-466,19,259856
-31,25,64,-461,-48,259827
8,144,-41,-433,49,259911
29,29,-105,-506,3,259846
21,54,17,-479,-74,259847
29,189,58,-576,-1,259819
72,167,-129,-498,64,259829
42,63,-55,-426,26,259801
60,99,-41,-453,-32,259888
91,175,-140,-478,20,259876
108,157,-197,-472,34,259907
62,216,-98,-448,-23,259893
54,370,-28,-444,-22,259817
105,446,100,-394,13,259878
22,343,86,-433,-12,259931
136,296,28,-516,-42,259767
50,263,-127,-412,-7,259781
101,248,-3,-440,70,259735
128,247,413,-482,-20,259858
53,252,530,-457,-30,259856
104,373,91,-483,-27,259822
91,347,-1,-452,90,259774
6,159,253,-525,55,259823
87,66,332,-539,-80,259738
29,76,323,-450,28,259876
20,46,285,-518,61,259839
158,62,137,-479,13,259866
85,96,-38,-418,62,259910
69,145,259,-480,12,259755
15,45,270,-494,55,259883
116,30,252,-492,10,259905
31,24,58,-460,-39,259830
74,-12,-57,-502,17,259849
106,41,93,-541,29,259817
63,112,27,-460,-6,259761
85,106,-143,-408,26,259764
70,69,37,-491,-15,259811
7,61,212,-464,-45,259836
36,106,80,-521,-80,259802
59,138,-142,-465,-33,259843
36,72,27,-553,-47,259939
18,45,17,-511,-24,259893
62,95,18,-495,-15,259834
4,131,170,-512,35,259831
-61,135,386,-452,59,259903
-18,101,274,-456,-29,259872
5,43,60,-543,9,259748
-21,-41,-69,-425,-22,259865
9,-76,-76,-408,-67,259830
0,-120,53,-460,22,259843
-8,-43,50,-509,-22,259887
-26,24,12,-427,13,259753
-36,68,30,-463,0,259810
-28,74,30,-416,-93,259955
-39,49,54,-488,-83,259794
-46,-40,44,-511,-48,259825
-18,-74,-10,-474,-29,259942
15,-39,22,-424,72,259862
8,6,161,-440,-50,259876
-46,72,26,-466,4,259837
-5,116,-22,-464,-35,259882
-62,74,98,-444,-3,259828
-81,80,131,-464,-75,259775
-58,73,-17,-499,-27,259880
-45,54,6,-460,-97,259903
-45,-12,83,-511,-42,259844
0,-30,117,-448,-116,259921
-35,21,148,-525,-100,259894
-33,87,327,-503,63,259885
-56,103,367,-465,51,259887
-35,64,190,-460,-60,259897
36,29,47,-507,9,259867
-30,-46,118,-465,-3,259891
26,-132,111,-498,-57,259810
87,-123,5,-444,-35,259823
68,-108,10,-463,2,259852
79,-76,128,-466,10,259842
126,-64,147,-433,45,259814
82,-83,54,-447,98,259877
91,-97,108,-447,-2,259854
58,-153,131,-457,-13,259878
78,-141,70,-432,32,259818
55,-81,104,-495,0,259874
22,-39,191,-515,-15,259843
33,-25,131,-519,-14,259842
80,-27,30,-480,3,259860
51,-124,10,-522,12,259888
138,-184,-55,-488,-13,259870
129,-128,92,-441,-79,259838
63,2,159,-482,-58,259828
158,13,-119,-493,10,259818
243,-76,-131,-465,-6,259818
106,-17,430,-455,-26,259772
12,110,449,-537,-73,259878
176,67,54,-507,6,259813
177,-127,-183,-354,-97,259755
160,-129,202,-469,-45,259841
62,-59,208,-499,75,259937
167,-66,88,-490,46,259836
147,-129,-73,-450,-69,259734
99,-44,71,-375,-53,259730
49,-21,130,-449,-10,259796
80,-79,117,-531,-27,259919
85,-145,-121,-410,-4,259789
170,-137,-137,-339,-9,259747
132,-147,7,-383,49,259808
127,-103,179,-427,38,259841
134,-12,17,-477,-6,259855
174,-3,88,-429,37,259830
109,-41,249,-509,25,259859
94,-36,213,-501,3,259891
159,-36,-34,-459,20,259894
121,-56,-55,-434,15,259865
115,-54,29,-501,1,259888
128,66,193,-505,-61,259841
77,73,26,-476,-38,259888
119,85,28,-477,-16,259838
46,105,169,-459,31,259765
12,117,193,-473,-42,259801
45,14,34,-489,-6,259830
32,-114,0,-480,-4,259803
81,-69,23,-482,-96,259940
104,108,-124,-409,-84,259879
112,142,-141,-454,-39,259868
96,-19,178,-511,20,259850
71,1,424,-486,19,259953
22,160,146,-471,25,259945
188,78,-32,-506,20,259798
45,-222,97,-447,-48,259884
108,-112,173,-503,-130,259903
108,132,100,-422,23,259893
61,-49,45,-477,-15,259861
129,-161,63,-451,-92,259808
64,50,265,-422,-76,259749
-83,103,173,-399,98,259846
96,-119,0,-528,-41,259909
23,-202,54,-435,-119,259826
-36,27,77,-487,-27,259767
19,93,176,-417,55,259964
-35,-61,217,-392,6,259843
41,39,267,-501,-39,259869
-18,159,241,-361,50,259830
-8,37,89,-458,48,259860
57,-57,173,-519,-39,259829
-37,-36,15,-468,-31,259877
54,60,-25,-484,-30,259764
-78,-37,-26,-453,45,259896
-57,-86,180,-536,-7,259887
-41,11,180,-472,-20,259789
-76,25,-52,-477,1,259933
-48,-22,57,-387,20,259848
-116,-56,203,-415,-10,259814
-123,-49,83,-512,-11,259851
-51,-29,-85,-493,46,259890
-144,-67,23,-466,16,259820
-139,-37,342,-515,-4,259908
-190,13,233,-507,-72,259856
-111,45,112,-484,-8,259885
-127,13,83,-433,6,259902
-182,-35,105,-454,-36,259722
-143,-43,-28,-518,30,259891
-115,25,-62,-472,15,259887
-162,30,26,-416,104,259824
-169,79,192,-508,24,259769
-205,117,180,-466,26,259838
-186,173,245,-435,20,259839
-203,121,204,-523,30,259776
-214,69,190,-492,-91,259884
-217,77,172,-470,-56,259826
-187,92,53,-515,-57,259773
-179,107,83,-375,18,259798
-200,116,159,-437,-27,259855
-137,162,349,-447,-24,259884
-226,172,251,-493,21,259917
-168,166,88,-441,-60,259920
-184,128,126,-421,-50,259969
-238,123,157,-446,-61,259892
-172,161,147,-496,-73,259722
-194,126,-34,-453,-33,259815
-134,135,112,-494,-29,259789
-184,137,278,-445,15,259799
-133,137,236,-554,-24,259890
-85,111,127,-514,19,259918
-114,53,187,-480,-18,259888
-116,39,153,-417,2,259849
-55,59,108,-428,-14,259831
-93,45,-35,-468,-30,259847
-7,94,154,-408,72,259767
-96,124,241,-458,-52,259962
-63,186,123,-539,-28,259907
-10,206,57,-465,2,259883
-48,157,88,-498,-27,259916
6,150,43,-492,-129,259930
30,126,-3,-526,-49,259826
31,124,97,-498,41,259862
33,174,109,-500,-37,259829
49,192,13,-476,-34,259788
35,181,173,-406,-2,259783
-35,141,179,-447,-65,259879
35,143,189,-513,-55,259897
-6,131,48,-447,-30,259932
37,149,43,-459,7,259821
39,140,190,-462,-33,259784
13,133,236,-453,-40,259823
51,155,264,-380,41,259894
8,156,234,-398,131,259861
-4,143,211,-551,3,259866
-21,107,254,-506,13,259880
-50,105,87,-471,15,259881
12,147,-66,-383,57,259869
-17,123,-38,-462,7,259879
-7,139,146,-487,-14,259831
-14,187,261,-477,-15,259793
-25,207,146,-502,19,259874
4,191,125,-457,46,259903
-38,140,219,-470,-139,259853
-30,92,60,-476,-89,259962
49,103,-118,-438,-61,259850
30,141,-69,-379,-37,259767
38,206,97,-438,-49,259853
73,237,19,-436,-20,259875
91,236,43,-448,-21,259870
50,172,159,-522,-40,259780
78,106,95,-510,-1,259874
83,97,-18,-446,-4,259755
60,114,-34,-383,-9,259835
108,113,84,-472,-29,259843
79,67,135,-379,108,259790
133,128,111,-451,-10,259785
135,158,173,-504,-13,259821
73,83,198,-519,-8,259835
133,17,128,-503,-15,259837
155,8,19,-411,-16,259862
121,-10,-19,-421,-1,259798
163,-18,90,-483,50,259793
138,-32,104,-428,-27,259900
163,31,60,-532,-77,259909
149,21,60,-471,-86,259842
95,-39,140,-451,-76,259878
106,-19,142,-427,-43,259844
101,5,-13,-460,34,259876
82,-36,-76,-458,-11,259859
78,-89,12,-412,22,259837
57,-72,148,-461,-6,259858
22,-32,144,-499,38,259842
69,-21,58,-511,-7,259920
21,-4,49,-474,13,259799
32,12,79,-462,91,259748
16,-16,-31,-515,-49,259862
18,3,-169,-499,-15,259852
25,48,-25,-468,68,259802
-43,60,132,-452,-47,259854
-15,38,99,-479,-77,259823
9,6,158,-432,-87,259850
-42,-32,280,-466,-53,259839
-30,-40,163,-512,-78,259851
14,-49,37,-505,-30,259829
-39,-60,-22,-458,6,259757
-20,10,201,-536,35,259906
-74,65,124,-513,13,259947
6,97,110,-545,-37,259860
-62,39,187,-460,-19,259867
-56,11,230,-528,-105,259873
-6,16,103,-546,-7,259866
-19,9,-8,-482,-7,259793
10,20,-27,-531,-105,259816
22,39,-12,-480,-13,259929
-7,40,-14,-461,-17,259944
3,44,109,-429,-14,259992
-59,4,83,-523,-23,259920
-8,26,187,-497,-10,259786
-47,13,140,-509,-51,259922
-35,-39,3,-512,-15,259788
14,-75,28,-427,-26,259710
-10,-29,177,-459,5,259915
-16,21,148,-522,-16,259778
46,19,116,-529,-32,259760
-1,16,165,-439,-48,259862
21,29,318,-431,-28,259859
18,-5,207,-475,-29,259868
32,-51,6,-479,43,259871
67,-65,9,-516,3,259823
89,-37,8,-484,1,259806
97,-6,141,-435,-47,259841
103,-46,107,-498,46,259879
143,-71,30,-513,16,259857
98,-26,34,-432,-19,259826
143,-31,117,-537,-7,259913
80,-123,78,-528,-5,259900
130,-134,16,-505,-9,259882
117,-73,42,-473,-23,259806
131,-50,3,-466,-38,259863
161,-95,106,-480,-19,259868
149,-80,149,-528,-11,259833
173,-31,155,-479,-38,259824
181,-69,130,-392,-53,259829
163,-128,7,-451,-36,259870
191,-82,62,-452,-27,259840
164,-31,209,-406,-41,259754
135,-33,96,-450,-37,259881
268,0,56,-471,0,259754
149,35,319,-504,12,259947
130,23,217,-611,-27,259886
241,13,4,-494,-73,259845
131,-10,74,-428,-99,259790
94,-2,139,-443,-41,259818
143,-29,-15,-448,69,259904
96,-41,75,-443,11,259876
55,-15,218,-532,34,259894
86,-20,262,-532,60,259943
49,-44,148,-438,-17,259881
90,-69,80,-439,-47,259755
71,-114,13,-412,-73,259827
118,-104,-32,-488,-51,259800
74,-33,52,-421,-30,259837
18,-13,-41,-474,-26,259825
85,-10,-86,-432,13,259846
50,-34,104,-414,-20,259801
-5,-81,70,-439,26,259812
109,-114,-125,-495,-45,259794
42,-138,-101,-443,-84,259840
45,-121,-43,-430,-62,259882
98,-87,-17,-393,-47,259931
55,-68,-42,-385,-26,259865
77,-11,3,-488,-38,259853
30,29,80,-527,12,259974
75,6,47,-528,7,259831
111,-29,-8,-579,-41,259800
83,-83,-90,-491,-51,259772
151,-68,-58,-544,41,259857
150,-71,-53,-453,33,259826
126,-76,-47,-412,17,259824
177,3,88,-446,-27,259915
102,28,178,-404,-5,259832
156,42,156,-480,3,259797
124,-5,96,-460,0,259755
83,-35,134,-463,4,259866
126,-40,169,-501,-62,259829
65,-47,101,-469,-27,259840
68,-19,69,-445,-19,259898
77,-16,94,-476,-50,259725
68,3,108,-413,-26,259713
71,18,171,-447,-21,259768
38,-33,141,-414,-56,259872
44,-54,221,-519,-15,259793
3,19,227,-487,-52,259787
25,89,181,-492,-12,259797
-28,100,257,-434,57,259816
-41,112,341,-519,8,259850
-46,132,379,-532,-14,259795
-54,105,237,-483,-9,259753
-40,28,158,-429,33,259879
-60,20,192,-475,-27,259927
-93,54,101,-506,-29,259856
-76,119,147,-455,47,259770
-137,108,23,-391,7,259822
-68,124,93,-430,-83,259920
-120,127,204,-464,-79,259895
-132,115,127,-557,-81,259906
-100,76,21,-493,-42,259805
-125,41,47,-458,-35,259809
-155,62,110,-522,30,259841
-153,90,22,-449,15,259872
-166,68,20,-526,16,259916
-154,112,225,-504,-64,259875
-196,117,227,-459,8,259817
-164,119,150,-451,27,259805
-181,82,101,-439,-42,259836
-198,35,53,-490,4,259836
-176,61,114,-571,-75,259810
-259,96,110,-480,-97,259841
-240,128,63,-524,-34,259888
-252,128,94,-453,-23,259871
-254,143,150,-477,-48,259897
-245,170,94,-524,-63,259869
-263,132,-49,-540,-16,259844
-214,119,38,-543,15,259813
-238,137,-15,-451,-76,259861
-218,184,-22,-373,-35,259829
-246,182,117,-389,-8,259883
-222,188,245,-474,-40,259866
-231,217,276,-446,-83,259774
-205,222,243,-549,-84,259842
-205,164,233,-468,-11,259856
-212,139,179,-403,-15,259777
-199,168,116,-440,-64,259826
-180,196,99,-493,-23,259844
-183,180,43,-492,38,259850
-125,202,181,-522,-28,259827
-158,220,341,-469,-27,259776
-152,213,159,-531,-35,259889
-67,150,174,-495,31,259805
-127,104,346,-508,-15,259823
-114,165,289,-564,-72,259806
-96,200,167,-460,-39,259757
-137,196,245,-454,-55,259801
-112,193,377,-460,-120,259874
-121,205,260,-489,-98,259932
-75,185,245,-486,-31,259854
-88,78,100,-449,-19,259902
-85,60,173,-390,-78,259924
-119,88,132,-431,-2,259878
-91,123,1,-519,1,259807
-116,82,143,-546,-9,259909
-123,74,366,-538,-85,259883
-128,143,335,-526,-35,259898
-99,150,212,-466,27,259919
-108,57,119,-458,-8,259860
-96,29,105,-455,-45,259790
-55,68,-9,-459,-32,259841
-100,90,-33,-472,48,259816
-160,46,50,-482,-17,259774
-111,-19,105,-527,-64,259816
-52,45,140,-535,-39,259878
-150,92,10,-409,-31,259823
-45,53,-51,-454,74,259852
-50,-40,-74,-480,11,259872
-51,43,10,-432,-53,259846
-16,66,-22,-474,41,259882
8,23,-51,-544,-40,259811
49,46,138,-469,-84,259801
56,106,141,-512,-53,259841
86,73,-29,-565,24,259910
153,-9,-68,-452,-33,259831
65,52,56,-419,-4,259844
101,186,29,-431,-12,259814
127,189,-41,-465,8,259868
114,143,9,-452,-69,259841
151,150,130,-462,-86,259878
157,166,144,-434,-82,259948
238,179,94,-434,-14,259851
203,128,4,-448,7,259750
204,106,-37,-516,-114,259817
203,110,-2,-517,-74,259956
134,122,-3,-469,33,259810
167,174,127,-406,0,259830
174,204,220,-456,30,259839
156,258,184,-490,35,259918
197,253,108,-457,36,259889
168,122,85,-434,-103,259836
158,25,110,-476,-96,259725
178,76,113,-378,-63,259870
142,125,55,-384,-67,259911
142,104,27,-508,22,259884
151,77,143,-447,35,259800
99,103,270,-444,13,259774
134,121,98,-564,-12,259831
181,79,40,-572,-15,259877
166,24,77,-513,19,259852
159,53,87,-528,-49,259734
172,51,24,-554,-18,259810
151,-13,135,-462,-92,259792
178,-6,231,-441,-26,259850
182,17,136,-448,-55,259972
186,-12,68,-490,48,259828
188,-66,67,-445,6,259805
152,-18,-26,-498,-31,259821
156,23,-60,-485,8,259892
140,-25,21,-433,2,259816
122,-22,73,-433,-31,259809
131,26,89,-454,8,259921
107,19,75,-525,26,259829
121,-42,48,-529,1,259865
135,-79,17,-499,-47,259904
132,-93,-9,-563,-32,259930
112,-87,-4,-516,14,259833
86,-34,17,-458,-35,259846
34,-14,98,-445,-33,259893
27,-27,185,-363,4,259956
25,-62,171,-403,-11,259840
35,-78,112,-472,-91,259844
33,-154,141,-483,-21,259867
49,-205,74,-485,27,259760
55,-131,-60,-521,18,259793
37,-76,-14,-560,-2,259891
0,-101,114,-454,-10,259799
4,-76,151,-531,-62,259823
3,-66,109,-507,-46,259844
11,-106,113,-431,-48,259848
4,-135,141,-486,-61,259802
27,-118,67,-491,-73,259762
60,-88,10,-523,-87,259805
77,-122,5,-474,-85,259828
79,-100,161,-504,-53,259750
76,-23,206,-496,-97,259777
106,11,113,-462,-111,259871
109,-8,86,-476,-47,259723
93,-31,112,-478,-41,259739
100,-30,61,-441,14,259876
131,-14,-19,-403,-51,259845
125,-11,-19,-502,7,259881
105,-14,114,-507,-29,259863
102,-6,89,-488,-35,259884
142,24,28,-457,-28,259873
86,-4,150,-444,-47,259868
43,-80,211,-445,-1,259935
85,-100,9,-391,-69,259883
97,-40,-98,-488,-35,259830
54,-29,15,-510,-17,259814
82,-48,210,-490,76,259875
39,-36,161,-419,-63,259918
87,8,112,-462,-26,259885
62,-59,118,-474,36,259878
30,-119,167,-449,-48,259843
14,-96,132,-496,-10,259749
27,-73,36,-452,55,259901
19,-87,87,-525,26,259829
-16,-88,245,-490,0,259850
-13,-60,276,-449,32,259875
13,-66,197,-489,6,259882
3,-90,176,-537,-13,259883
30,-69,180,-442,-21,259880
-5,-90,-32,-453,-59,259900
9,-104,-165,-523,61,259875
-9,-105,-48,-472,90,259904
-64,-76,57,-511,22,259970
-35,-54,10,-542,-26,259906
5,-65,-56,-456,-56,259906
38,-84,-9,-468,-14,259784
52,-116,40,-471,38,259864
40,-115,-105,-464,-22,259891
96,-124,-80,-495,-31,259794
60,-143,-32,-459,-15,259819
49,-121,93,-442,5,259830
54,-123,117,-548,1,259896
47,-134,128,-471,6,259986
31,-130,160,-454,31,259876
45,-133,125,-428,19,259851
53,-140,-48,-447,81,259874
64,-116,-64,-444,-21,259834
16,-71,43,-482,-32,259853
26,-43,119,-449,-3,259887
25,-14,106,-505,-69,259903
30,-20,161,-470,-63,259918
32,-46,271,-551,-29,259891
33,-30,162,-490,-25,259838
69,1,75,-518,21,259839
78,14,47,-476,51,259812
75,56,128,-422,27,259814
75,127,171,-528,-37,259810
82,161,165,-438,-29,259809
56,136,170,-501,-62,259783
42,141,269,-476,-36,259776
19,128,155,-460,3,259783
69,84,-36,-439,-56,259758
95,74,-71,-385,-128,259775
58,117,62,-430,-30,259794
27,141,59,-491,-34,259853
75,125,64,-481,-2,259843
51,129,79,-417,93,259793
18,167,142,-475,36,259779
2,164,107,-474,-23,259785
26,114,-118,-489,12,259726
32,93,-107,-355,-43,259772
-43,123,64,-427,-67,259867
-24,172,130,-486,-106,259892
-28,165,54,-464,-81,259749
-39,124,130,-449,-30,259847
-58,123,231,-432,-18,259801
-74,115,123,-504,31,259835
-67,81,11,-435,-14,259917
-107,72,76,-496,-70,259852
-161,104,161,-531,-53,259762
-131,131,238,-516,-110,259833
-156,103,289,-453,31,259892
-188,78,360,-465,-33,259858
-188,84,351,-494,-67,259907
-169,51,202,-495,1,259795
-160,5,87,-487,-12,259809
-230,36,143,-468,-31,259776
-213,107,204,-458,21,259872
-239,121,161,-445,44,259840
-243,86,138,-486,-5,259839
-226,65,261,-446,23,259825
-245,56,316,-533,0,259921
-186,28,176,-445,36,259891
-174,0,-13,-441,-16,259794
-189,9,44,-493,24,259772
-211,54,135,-495,-32,259836
-189,91,142,-466,29,259862
-191,82,140,-483,8,259859
-158,87,258,-485,-15,259839
-189,105,361,-476,-5,259936
-143,104,151,-442,-18,259893
-95,53,-25,-446,21,259812
-131,66,137,-435,-2,259783
-183,124,211,-455,-21,259841
-152,172,101,-417,-87,259875
-150,97,126,-458,-87,259801
-174,88,339,-433,-81,259824
-183,148,338,-491,-61,259900
-163,146,136,-521,-1,259907
-135,109,95,-372,6,259799
-165,148,151,-468,-33,259808
-170,206,134,-542,39,259885
-163,223,96,-462,-20,259815
-154,188,128,-459,-47,259805
-169,180,236,-432,-84,259903
-157,168,259,-482,-75,259847
-150,81,113,-448,29,259855
-116,51,30,-499,-24,259875
-135,102,130,-441,-29,259890
-167,137,169,-451,4,259882
-136,139,68,-475,-57,259827
-118,172,160,-471,-39,259900
-168,190,310,-511,7,259907
-138,188,265,-468,10,259845
-97,139,99,-503,11,259860
-101,120,-15,-445,-38,259935
-82,130,45,-503,-20,259934
-113,148,40,-461,35,259913
-76,174,5,-455,-2,259847
-60,154,14,-394,-6,259805
-48,142,253,-531,-32,259831
-47,147,241,-519,-15,259809
22,128,107,-495,3,259838
-8,62,26,-485,-27,259807
35,72,182,-475,-63,259824
-28,102,169,-415,-45,259779
43,121,81,-344,-21,259763
15,88,184,-345,-69,259816
-4,93,294,-464,-50,259785
12,140,183,-471,13,259886
54,79,-33,-465,51,259920
67,-2,-71,-451,-32,259804
49,22,-1,-545,-11,259786
66,51,-123,-518,-13,259837
70,41,-186,-488,11,259835
64,-27,-21,-451,-40,259813
51,-33,85,-452,-36,259885
136,-8,-27,-550,-40,259933
140,-84,-132,-487,-78,259890
158,-86,-55,-436,-28,259885
150,-36,1,-446,-30,259863
183,16,-49,-505,-52,259807
185,56,-21,-536,-1,259904
150,19,145,-493,-43,259830
181,44,251,-447,-40,259865
203,65,195,-457,6,259891
203,0,141,-463,-17,259873
215,-28,138,-468,-62,259784
213,18,153,-442,49,259886
206,83,55,-456,-25,259810
214,123,71,-495,40,259824
171,114,144,-479,11,259802
211,167,297,-515,18,259806
181,152,170,-488,11,259834
240,89,107,-453,-40,259775
211,52,97,-435,-18,259792
232,102,95,-536,-6,259761
213,155,6,-492,27,259818
237,140,-44,-461,57,259826
205,132,83,-388,43,259864
205,181,160,-509,-56,259841
196,155,83,-509,-9,259871
231,88,24,-510,-28,259921
187,42,27,-458,3,259898
161,43,21,-454,35,259850
160,56,-58,-501,-10,259821
153,44,-16,-527,-64,259823
148,68,150,-440,-75,259802
123,79,188,-496,-8,259930
176,73,103,-423,-94,259834
155,79,41,-397,-53,259711
143,61,44,-463,-3,259769
148,89,49,-410,34,259818
138,117,-30,-493,-43,259690
154,101,-90,-431,-3,259852
166,83,63,-496,25,259773
116,48,146,-522,-21,259803
183,26,-8,-573,-86,259802
189,-14,-40,-452,0,259783
136,-73,-21,-499,-16,259831
151,-62,-50,-406,-42,259896
155,-41,-114,-504,-55,259785
115,-38,8,-496,-21,259795
84,-53,146,-504,-4,259849
130,-75,185,-524,-68,259828
112,-103,157,-487,4,259773
117,-121,125,-434,-1,259823
107,-138,161,-529,45,259897
85,-109,117,-464,44,259896
95,-67,19,-477,-11,259813
82,-35,49,-448,-17,259834
42,-47,221,-419,42,259889
56,-48,298,-421,16,259897
40,-36,144,-516,-29,259884
70,-82,81,-500,60,259832
28,-94,51,-498,18,259776
56,-52,6,-478,-51,259871
32,8,-85,-448,-47,259917
20,41,-114,-423,110,259819
25,68,60,-454,24,259794
-25,94,147,-428,7,259872
2,110,21,-461,-48,259858
28,93,49,-415,-94,259817
-41,56,126,-397,-26,259813
-9,83,41,-462,-58,259770
7,116,-71,-492,-46,259775
4,103,12,-452,49,259854
-2,86,203,-415,45,259837
-32,74,135,-482,53,259974
13,92,49,-553,12,259880
-19,44,69,-473,64,259915
-34,21,97,-450,36,259914
-24,55,-7,-501,-25,259842
-30,51,-65,-502,4,259808
-45,38,-26,-463,-2,259773
-34,29,86,-463,-3,259812
-61,17,63,-459,-34,259822
-42,3,53,-413,13,259851
-72,-64,-15,-422,-36,259958
-62,-63,-6,-485,-46,260024
-121,-68,-65,-431,-55,259913
-121,-101,-36,-433,32,259842
-113,-114,50,-409,2,259830
-117,-59,138,-472,52,259887
-100,-31,146,-460,43,259876
-70,-45,119,-426,-44,259872
-75,-69,99,-441,-64,259746
-86,-78,144,-449,77,259775
-99,-76,80,-443,22,259874
-81,-49,57,-396,26,259764
-99,-35,144,-431,-53,259816
-77,-33,345,-434,26,259783
-89,-67,261,-511,11,259794
-7,-32,216,-591,-53,259707
-39,-47,275,-418,43,259862
-20,-98,170,-460,-20,259809
21,-103,26,-472,-25,259720
-8,-70,67,-473,-60,259727
-35,-83,131,-506,-23,259775
9,-122,199,-491,38,259824
-8,-124,197,-460,22,259854
15,-82,239,-488,-8,259793
39,-102,208,-441,-5,259917
36,-108,146,-481,-20,259857
53,-40,91,-404,-35,259823
56,-43,70,-490,-5,259741
74,-47,136,-476,-9,259794
60,-26,290,-372,-39,259800
33,3,253,-483,11,259867
88,17,257,-517,13,259826
49,-11,253,-509,-41,259851
69,-27,272,-448,-47,259840
70,-10,109,-453,16,259817
104,39,69,-496,8,259785
52,64,141,-493,-55,259848
71,43,269,-513,55,259839
57,46,234,-477,42,259888
53,60,184,-462,-20,259922
36,18,137,-504,-4,259845
15,-21,158,-529,-23,259872
14,-15,34,-463,-18,259795
26,51,35,-442,-16,259797
-7,61,106,-404,-12,259937
8,40,194,-503,19,259865
-8,34,131,-508,-30,259879
33,36,94,-551,5,259979
-35,32,164,-526,24,259883
-43,-18,120,-516,-32,259954
-16,9,13,-499,3,259830
-35,37,-49,-427,80,259824
-23,15,19,-410,31,259873
-17,-4,97,-398,6,259912
-44,30,78,-447,-62,259920
-14,45,6,-501,73,259840
-18,20,73,-526,-35,259839
-68,20,29,-492,-53,259838
-34,67,-85,-438,-44,259874
-56,78,-74,-444,12,259799
-37,79,113,-449,-31,259760
-52,92,48,-503,5,259895
-4,123,1,-486,44,259763
-26,141,78,-443,36,259870
-66,109,101,-555,-41,259904
-55,92,-9,-561,12,259820
-59,109,37,-503,-88,259876
-125,106,99,-456,-26,259838
-101,108,170,-442,36,259855
-117,112,207,-495,-14,259817
-118,95,241,-527,21,259773
-81,62,231,-478,57,259866
-101,20,240,-435,-61,259885
-117,4,163,-472,-67,259807
-96,-2,61,-505,-73,259711
-150,-20,163,-406,-21,259762
-151,-26,174,-488,-128,259812
-104,-11,182,-438,-14,259775
-121,-4,180,-482,-19,259789
-106,-13,234,-476,-72,259936
-104,-9,159,-435,-37,259942
-79,16,91,-515,-47,259894
-87,12,-29,-458,-55,259855
-74,6,51,-501,-13,259795
-119,9,147,-563,-9,259880
-134,43,156,-502,32,259969
-99,54,122,-508,-45,259979
-83,65,172,-454,-11,259815
-114,105,233,-404,-24,259840
-121,139,131,-478,-44,259892
-97,159,-12,-472,24,259833
-114,188,103,-503,48,259767
-141,183,169,-516,39,259855
-140,153,167,-493,-22,259833
-99,151,183,-469,45,259827
-150,151,203,-501,16,259836
-153,126,229,-537,30,259876
-134,124,85,-484,-55,259840
-131,144,24,-549,-15,259782
-138,141,126,-489,-51,259798
-157,113,176,-528,-72,259799
-110,101,151,-543,-43,259871
-168,136,170,-505,-46,259816
-126,93,196,-482,-39,259778
-149,74,185,-469,43,259894
-152,87,16,-494,-18,259885
-119,125,-39,-519,34,259860
-149,130,-13,-441,42,259871
-129,160,52,-439,-37,259836
-117,153,72,-467,-6,259823
-102,111,92,-508,-29,259819
-83,90,141,-468,29,259900
-50,103,137,-491,-65,259841
-57,104,0,-425,-37,259932
-41,95,-40,-475,19,259924
-59,120,76,-439,-25,259830
-45,157,118,-462,-35,259850
-35,147,52,-491,-51,259840
14,143,121,-530,-33,259865
-4,127,203,-503,24,259882
-14,143,73,-530,-40,259871
40,110,-91,-535,-29,259809
52,40,-88,-470,-32,259817
39,39,58,-480,-67,259777
29,22,67,-551,-83,259822
84,-8,37,-441,47,259819
108,-7,140,-446,-56,259814
82,-2,244,-441,-112,259848
131,-8,194,-486,-69,259876
98,-28,131,-508,-20,259846
91,-27,126,-526,9,259811
98,-2,242,-549,82,259882
93,-20,190,-484,-30,260016
159,-22,231,-492,1,259820
105,-4,303,-455,4,259808
122,26,299,-495,29,259884
149,42,134,-471,1,259851
126,48,31,-451,-16,259770
125,81,122,-399,3,259839
110,116,137,-469,2,259796
117,137,52,-477,3,259838
154,133,77,-449,3,259876
145,100,108,-471,-45,259814
186,95,93,-349,-92,259780
207,108,5,-451,-11,259842
203,107,-122,-508,0,259813
201,117,-118,-459,-29,259766
201,113,-25,-511,-42,259821
214,102,-39,-512,1,259885
245,87,-34,-452,-10,259884
251,67,72,-451,-14,259802
275,53,150,-447,-2,259894
270,28,-10,-492,17,259874
290,9,-116,-481,-40,259809
232,-16,-31,-507,-82,259801
204,9,41,-571,-68,259816
255,19,-84,-523,-46,259913
213,18,-83,-479,-16,259886
220,-23,89,-445,42,259891
227,13,189,-405,-45,259904
246,58,-31,-424,-46,259933
250,62,-71,-435,25,259898
200,63,56,-437,-1,259809
198,103,79,-428,-5,259833
195,111,-11,-431,-14,259936
220,77,66,-480,29,259910
182,56,164,-488,22,259919
225,45,68,-491,-12,259873
233,21,-19,-445,17,259802
183,14,-25,-479,36,259821
158,43,-5,-476,-54,259769
164,75,8,-518,22,259855
150,49,-15,-548,94,259804
186,22,110,-479,10,259778
145,20,254,-449,-27,259867
158,29,251,-512,-63,259876
182,5,46,-549,9,259770
180,-14,-9,-524,0,259800
156,-8,100,-456,-80,259826
125,19,70,-491,-3,259784
159,32,-29,-455,-2,259826
131,-6,94,-481,-77,259907
90,-20,245,-489,-45,259992
138,-8,186,-424,-1,259862
132,-18,54,-392,3,259781
121,-36,48,-439,-40,259857
91,-3,88,-400,-109,259852
87,24,53,-468,-39,259871
87,17,29,-445,-28,259788
74,-24,146,-443,-11,259840
68,-12,311,-474,-49,259869
73,19,275,-506,-25,259902
63,-16,93,-445,0,259860
86,-34,92,-496,-7,259852
17,-3,134,-500,-50,259787
20,40,83,-483,56,259838
24,23,-40,-434,68,259844
20,-10,71,-422,19,259939
-40,-6,215,-417,0,259895
-30,4,185,-415,23,259876
-5,-24,38,-440,-6,259926
-26,-60,16,-432,-32,259870
-62,-30,74,-439,-33,259981
-76,-6,34,-468,-7,259930
-56,-22,-29,-454,-79,259959
-64,-26,66,-420,-57,259831
-76,-42,192,-468,-37,259800
-58,-39,155,-495,-25,259936
-25,-18,52,-450,32,259837
-66,-11,27,-352,8,259869
-89,19,108,-419,1,259852
-109,42,132,-511,-4,259828
-104,52,57,-538,-38,259888
-112,47,109,-533,-2,259752
-92,29,274,-392,-29,259889
-75,27,282,-468,-41,259831
-61,12,66,-527,-43,259858
-60,27,31,-474,-15,259880
-101,29,159,-501,12,259805
-113,50,119,-473,30,259904
-96,75,87,-508,8,259881
-94,80,179,-474,22,259874
-106,86,300,-441,-64,259853
-106,78,233,-421,-55,259846
-57,91,53,-477,-19,259829
-119,68,14,-465,51,259835
-161,72,61,-523,6,259910
-181,77,-23,-478,-46,259901
-169,59,-72,-452,-52,259818
-170,43,107,-439,53,259861
-172,41,284,-478,38,259865
-127,28,164,-485,11,259787
-118,0,20,-484,-11,259861
-119,-2,85,-505,-21,259824
-150,22,93,-452,-28,259823
-133,37,-49,-446,-12,259790
-119,-5,-70,-536,-46,259863
-139,-41,123,-526,-5,259862
-124,-41,230,-484,13,259828
-102,-43,126,-507,6,259821
-47,-72,65,-478,10,259870
-67,-66,55,-473,-20,259894
-79,-18,59,-453,-53,259863
-109,-22,42,-505,-18,259824
-85,-45,53,-529,7,259784
-123,-27,184,-452,-69,259797
-97,-41,354,-436,-16,259801
-84,-71,296,-513,-14,259915
-54,-53,192,-517,-16,259879
-51,-4,205,-452,-4,259873
-84,21,211,-458,-64,259818
-85,45,125,-476,-41,259861
-53,60,65,-474,6,259833
-102,46,164,-442,-3,259805
-72,34,295,-552,-46,259836
-90,16,203,-507,26,259862
-41,-15,152,-458,60,259838
-75,-25,181,-444,-70,259851
-98,10,196,-475,-64,259838
-98,48,73,-400,93,259801
-120,53,106,-467,-47,259713
-148,26,201,-550,-58,259783
-111,20,304,-535,-74,259920
-132,-8,244,-467,-94,259968
-90,-35,185,-510,-42,259713
-113,-35,143,-462,-96,259781
-137,7,204,-484,-67,259802
-133,24,118,-503,-36,259843
-105,34,-33,-436,-53,259903
-94,70,150,-483,-57,259833
-106,89,264,-526,-11,259919
-46,84,93,-515,-71,259815
-21,57,-3,-440,-73,259815
-89,45,68,-471,-29,259911
-77,71,70,-508,27,259908
-90,124,-75,-474,-5,259875
-91,119,-105,-451,-35,259876
-81,63,100,-431,34,259818
-69,21,170,-509,37,259870
-9,44,86,-473,45,259836
-37,12,52,-489,47,259785
-40,-39,103,-429,51,259810
-56,-18,52,-437,-63,259962
-53,27,-68,-474,-67,259889
-52,13,14,-445,-76,259818
-30,-28,169,-437,-29,259790
-51,20,174,-518,-64,259813
15,13,35,-467,-21,259883
46,-9,121,-414,-13,259870
-5,-11,172,-413,-21,259848
-3,38,53,-429,-27,259807
11,47,18,-399,26,259704
-8,23,103,-569,-3,259794
-10,51,217,-538,7,259840
3,80,239,-507,32,259860
18,71,154,-502,63,259786
9,50,141,-457,-23,259724
11,80,127,-424,-76,259803
0,119,90,-421,-4,259786
-14,106,13,-459,60,259848
-7,92,103,-450,-9,259843
-15,79,250,-449,-62,259908
7,83,226,-454,-19,259890
81,81,165,-439,15,259880
65,58,206,-501,-9,259876
62,74,190,-546,3,259811
51,115,73,-450,16,259806
56,118,7,-497,45,259804
28,100,54,-428,26,259867
50,66,152,-427,-31,259857
58,49,176,-490,-52,259852
58,61,124,-401,-89,259862
105,3,58,-450,-121,259769
64,17,104,-413,-79,259774
44,57,23,-490,-38,259713
46,121,-38,-456,-65,259734
30,123,-5,-489,-24,259865
28,90,66,-438,-86,259881
32,64,145,-515,-31,259916
51,59,128,-497,31,259835
58,56,94,-519,-10,259878
15,37,77,-524,20,259816
46,85,47,-486,-16,259884
64,162,-18,-418,11,259884
28,157,49,-469,55,259874
43,128,184,-442,-48,259825
52,142,200,-444,32,259779
86,152,58,-456,21,259774
102,66,135,-523,2,259835
54,-3,140,-501,-27,259931
71,84,-21,-449,-96,259863
86,126,-126,-448,-32,259760
40,71,-31,-514,28,259795
39,70,118,-543,-43,259845
38,130,94,-499,19,259923
61,131,93,-425,78,259921
95,29,95,-460,4,259789
54,40,131,-475,0,259808
87,62,38,-446,9,259938
60,58,38,-404,3,259884
68,-2,97,-467,42,259806
100,27,198,-465,-51,259871
114,92,152,-453,18,259829
144,104,70,-462,-46,259848
142,59,96,-509,-83,259791
121,89,110,-389,-8,259787
102,142,-78,-454,-28,259839
111,141,-124,-450,-6,259799
85,66,-1,-490,-3,259784
78,68,41,-521,-23,259841
120,106,36,-495,-36,259776
129,65,61,-471,-49,259783
143,13,157,-447,-11,259776
111,15,102,-407,-26,259896
126,42,59,-441,30,259885
87,24,48,-536,-12,259907
96,-3,94,-556,-6,259789
96,7,129,-456,41,259794
125,-3,124,-444,27,259854
135,-55,121,-518,23,259861
129,-70,109,-481,-15,259845
133,-67,-5,-443,25,259812
185,-77,-107,-477,-10,259755
111,-57,-40,-503,-17,259851
108,-58,2,-471,-37,259834
113,-33,41,-486,5,259839
134,-26,88,-491,-25,259809
151,-6,106,-444,10,259909
148,9,108,-451,-14,259870
148,-11,81,-502,-8,259925
154,6,39,-421,38,259989
123,66,16,-425,-6,259930
150,72,85,-450,47,259823
162,63,128,-462,-7,259835
164,63,142,-496,14,259887
184,83,203,-455,6,259898
176,64,218,-496,-21,259973
167,52,126,-530,34,259960
191,91,64,-521,11,259811
175,134,99,-462,-20,259794
138,125,110,-479,2,259841
146,93,105,-516,-37,259844
147,89,125,-481,-49,259843
138,76,191,-451,-9,259796
159,36,132,-532,-69,259830
138,1,10,-452,-27,259763
145,30,-31,-465,-17,259832
127,38,-4,-519,67,259863
117,39,36,-519,44,259840
107,52,19,-480,13,259867
130,77,22,-495,29,259891
109,79,103,-500,37,259872
113,44,113,-546,-10,259876
117,35,-2,-478,-12,259889
100,71,-46,-466,24,259807
77,69,56,-444,62,259806
34,51,85,-537,26,259876
75,50,33,-478,-7,259872
80,72,91,-528,-7,259788
52,72,208,-516,-7,259834
37,55,138,-437,-53,259913
55,61,-28,-432,3,259951
36,67,-43,-465,16,259838
7,33,53,-438,-48,259900
-10,23,40,-471,-14,259896
-7,37,-35,-459,56,259917
14,34,98,-490,45,259876
-13,-12,250,-524,62,259832
13,-41,154,-494,-13,259828
-7,-28,59,-430,81,259858
-40,-29,41,-500,-50,259867
-45,-51,107,-513,-32,259946
-30,-54,111,-470,38,259942
-28,-35,103,-543,78,259874
-23,-11,159,-487,-21,259898
-44,-16,251,-472,47,259843
-43,-42,228,-545,44,259884
-66,-23,107,-542,-15,259769
-47,0,92,-477,20,259837
-120,33,166,-474,77,259804
-145,24,196,-521,-2,259816
-121,28,129,-484,-53,259857
-128,30,235,-455,-61,259841
-126,26,338,-470,-11,259885
-119,45,270,-461,-58,259806
-102,26,77,-482,-47,259792
-99,36,131,-431,2,259759
-156,43,206,-465,-50,259897
-143,58,137,-451,-21,259805
-126,81,111,-398,-4,259744
-154,74,194,-460,-15,259884
-142,68,240,-477,-36,259868
-126,24,98,-458,-24,259819
-131,-34,-31,-410,-91,259825
-157,-36,29,-509,-23,259834
-183,-49,79,-524,-13,259834
-170,-39,40,-526,-3,259801
-183,-25,56,-538,-45,259833
-168,-29,132,-451,64,259773
-161,-5,192,-456,16,259883
-169,18,96,-448,-10,259851
-193,4,3,-483,-76,259944
-174,-17,-65,-468,-83,259947
-193,-20,-2,-460,-23,259897
-237,3,70,-475,-20,259846
-195,30,33,-534,25,259881
-166,40,112,-472,-17,259765
-173,54,248,-442,-47,259824
-150,74,237,-464,-14,259812
-121,78,91,-488,-2,259890
-161,77,121,-528,-15,259862
-159,67,234,-466,-56,259785
-147,60,231,-484,-11,259884
-152,61,196,-450,6,259850
-141,49,329,-439,-21,259878
-170,32,391,-526,-47,259882
-137,52,174,-533,-29,259833
-129,55,50,-448,-51,259834
-166,24,147,-414,3,259847
-167,25,138,-423,-32,259794
-158,61,17,-450,-105,259781
-152,38,56,-445,-50,259845
-157,-8,234,-545,-48,259859
-138,-22,215,-489,-37,259886
-112,10,79,-506,24,259937
-116,-5,-5,-456,30,259869
-126,-29,61,-465,-29,259756
-125,15,86,-515,-74,259860
-99,14,18,-485,-33,259740
-86,-8,62,-554,15,259808
-92,-12,186,-447,-31,259888
-80,27,212,-458,-42,259915
-71,13,48,-475,-26,259890
-46,-11,61,-435,-18,259815
-90,-18,132,-492,-30,259858
-78,26,100,-487,-1,259848
-34,38,70,-516,12,259856
-43,16,188,-423,15,259910
-39,16,311,-396,-7,259911
2,60,267,-493,-38,259891
2,78,126,-497,-95,259961
6,35,79,-551,-85,259785
6,24,91,-536,-20,259846
1,45,65,-561,-50,259824
-6,66,25,-551,12,259847
7,53,99,-537,26,259856
34,86,246,-546,-53,259873
23,123,193,-455,41,259879
60,118,58,-472,1,259923
31,49,77,-496,19,259843
49,19,114,-505,-32,259818
4,71,72,-523,57,259760
43,44,11,-475,9,259839
70,24,87,-472,-63,259860
64,44,228,-584,-59,259853
70,98,178,-509,-12,259866
129,116,55,-481,40,259863
116,93,-21,-417,-15,259815
107,80,65,-439,-41,259832
116,101,23,-501,-65,259867
127,100,-64,-482,-49,259850
139,94,15,-480,-31,259912
130,79,171,-453,-29,259809
149,104,133,-428,-92,259811
191,122,-8,-434,-53,259896
163,59,-39,-446,5,259921
165,22,46,-468,-24,259782
144,12,7,-480,18,259875
157,29,-38,-459,17,259845
150,3,79,-444,-69,259865
149,-2,206,-513,-13,259844
177,15,119,-557,-19,259825
210,24,-27,-497,-40,259964
157,4,15,-456,-6,259885
164,3,75,-547,-49,259774
155,15,23,-439,26,259819
147,26,22,-429,8,259861
136,-20,180,-487,11,259821
127,-47,256,-439,61,259898
152,2,223,-445,55,259875
147,17,121,-436,39,259906
145,-2,104,-489,7,259821
121,28,140,-433,-100,259759
100,85,103,-463,44,259748
83,79,40,-489,4,259869
84,34,135,-437,-28,259882
68,26,324,-432,-18,259863
57,59,169,-484,7,259829
110,62,39,-509,14,259781
56,39,150,-429,-11,259692
25,74,139,-480,-20,259882
44,119,-29,-480,0,259901
41,114,-34,-502,39,259837
-8,101,124,-509,62,259895
25,107,211,-523,-47,259815
32,86,139,-487,-2,259758
59,71,0,-480,70,259724
66,29,-36,-437,-17,259895
51,16,-1,-493,-39,259855
55,49,-102,-477,11,259838
62,43,-125,-506,-16,259818
65,32,19,-468,32,259887
