Vx,Vy,Vz,Ax,Ay,Az
40,219,207,3445,296,259048
240,206,536,3450,294,258960
-220,135,282,3429,242,259036
-312,240,-58,3302,297,259034
-117,249,-185,3407,320,258908
-84,114,-79,3532,353,258930
-158,58,159,3485,208,258992
-262,188,242,3418,202,259099
-321,215,92,3412,316,259006
-99,216,39,3447,293,258993
-88,203,60,3508,287,259014
-162,249,183,3426,303,259038
-144,204,430,3482,269,258945
-222,88,377,3494,188,259081
-234,56,99,3313,213,259037
-203,139,-222,3405,253,258976
-119,179,-191,3484,274,259019
-124,158,72,3470,353,259116
-221,191,280,3444,356,259049
-141,243,389,3452,309,259078
-50,181,409,3518,306,258987
-45,74,359,3483,252,259000
-102,86,203,3394,250,259020
-102,117,100,3427,284,259032
-95,137,6,3452,259,259035
-34,214,-3,3412,311,259124
56,263,151,3471,253,259010
-13,159,283,3457,245,258978
-116,100,291,3444,226,259058
-44,131,183,3503,255,259033
-2,94,1,3472,278,259027
-2,57,-143,3494,270,258956
71,154,-169,3533,344,258908
129,270,-35,3516,295,258958
158,246,182,3498,274,258927
74,194,259,3479,226,258985
117,250,271,3454,286,259049
142,236,159,3419,337,258961
63,144,29,3441,290,258944
123,159,-43,3415,266,258861
174,249,39,3454,270,259013
173,258,207,3506,318,259069
87,212,311,3465,372,258996
48,251,299,3414,323,258939
20,217,166,3469,252,258931
-26,137,-3,3450,213,258904
-61,92,-211,3506,190,258931
-118,87,-361,3532,205,258936
-154,149,-401,3419,271,258981
-169,213,-338,3470,267,259052
-205,227,-192,3492,284,259009
-256,149,-118,3482,274,259046
-285,144,-104,3442,252,259064
-264,174,-264,3441,335,258908
-278,75,-420,3497,351,258969
-347,36,-546,3513,308,259018
-296,134,-592,3422,264,258930
-379,236,-595,3393,288,258959
-350,194,-465,3434,301,259005
-322,124,-230,3404,285,258986
-377,127,-116,3344,258,259020
-371,114,-71,3426,269,258997
-437,32,-160,3508,243,259019
-342,15,-280,3422,230,258939
-282,120,-310,3409,263,258995
-237,174,-210,3401,334,258933
-206,121,80,3405,333,258980
-253,135,291,3454,256,259002
-258,173,302,3448,236,259059
-195,90,331,3435,306,259033
-204,-31,206,3453,253,259123
-244,-12,50,3412,261,258918
-150,143,-10,3538,264,258975
-106,151,62,3458,370,259051
-117,146,205,3528,292,259021
-112,153,330,3408,299,258916
-132,173,367,3446,280,258914
-236,76,164,3416,250,258867
-448,22,-376,3422,221,258905
-379,101,-794,3417,330,258814
-196,184,-850,3517,328,258964
-209,196,-646,3544,287,258998
-93,258,-111,3493,326,258980
-92,307,274,3477,279,259084
50,308,514,3447,298,259069
219,248,687,3531,300,259110
186,170,647,3525,301,258923
90,231,498,3348,293,258883
117,349,351,3387,325,258957
221,365,411,3500,301,259028
224,343,536,3485,310,259038
194,305,824,3418,297,259018
120,318,848,3430,259,259066
178,232,864,3474,261,258961
179,199,629,3521,284,259046
228,164,524,3526,189,258906
65,278,369,3508,269,258947
177,345,402,3480,278,259031
321,306,773,3499,262,258946
70,213,870,3501,260,258962
29,259,701,3466,315,259047
-19,228,451,3398,265,258970
86,94,212,3482,239,258950
-46,-15,-65,3446,257,259002
4,140,-42,3400,248,258963
-177,101,-138,3424,326,259030
-132,109,-70,3408,265,259038
-92,89,119,3412,254,258979
-208,101,57,3495,317,258995
-230,45,132,3401,244,258982
-222,9,32,3437,234,259052
-465,-111,-447,3450,232,258987
-265,16,-497,3376,229,258990
-261,46,-478,3465,293,258962
-239,-24,-56,3388,284,258933
-514,-22,-84,3436,283,258947
-303,-40,168,3363,254,259027
-291,-68,16,3582,246,259101
-283,-185,-124,3481,243,258942
-308,-47,-295,3402,221,259008
-455,-26,-536,3438,260,258958
-311,34,-446,3444,290,259036
-315,5,-382,3425,179,259046
-553,19,-515,3452,220,258950
-392,74,-386,3395,327,258972
-356,-60,-486,3530,308,259025
-808,-201,-1058,3377,278,258938
-444,123,-1235,3338,312,258845
-475,206,-1576,3502,309,259026
-540,226,-1559,3464,356,258971
-706,321,-1746,3477,304,258908
-945,588,-2076,3337,341,258918
-895,566,-2378,3289,346,258926
-784,337,-2312,3492,330,258889
-903,237,-2311,3469,222,258889
-931,385,-2266,3358,270,258969
-1062,412,-2468,3377,310,258976
-939,379,-2635,3401,257,258959
-604,400,-2355,3477,281,258982
-635,423,-1873,3409,312,259093
-669,354,-1285,3308,310,259045
-1023,240,-1422,3396,268,259036
-826,221,-1754,3302,298,258949
-636,230,-2188,3427,300,258876
-439,171,-2001,3446,240,258828
-284,206,-1271,3421,265,258985
-75,278,-267,3454,286,258927
313,348,757,3453,328,259080
680,305,1547,3552,278,259167
1160,236,2338,3508,250,259145
1432,171,3079,3545,290,259131
1601,191,3653,3610,254,259155
1788,225,4116,3504,304,259170
1967,224,4442,3513,333,259099
1975,137,4550,3489,280,259034
1971,144,4603,3418,239,259071
1830,107,4420,3502,277,259075
1691,10,4069,3425,298,259064
1565,-61,3591,3494,276,258978
1520,-21,3142,3456,239,258913
1356,-20,2741,3467,223,258961
1172,-5,2489,3446,264,259034
976,-9,2277,3459,325,259044
680,51,1869,3456,291,259021
425,33,1264,3418,252,258859
391,-21,756,3441,254,258822
308,-71,378,3504,300,258966
105,-41,1,3437,271,259029
-144,-3,-387,3405,239,258961
-166,29,-626,3335,274,258980
-122,61,-686,3480,302,259033
-86,83,-490,3515,283,258990
-153,54,-283,3475,297,259067
-166,-26,-174,3425,268,259095
-170,-53,-367,3495,219,259105
-105,3,-673,3489,253,259015
-108,2,-901,3481,286,259131
-134,14,-935,3470,339,259047
-207,76,-853,3455,269,258963
-179,138,-695,3464,276,259051
-211,114,-632,3544,305,259121
-276,57,-748,3517,267,258963
-239,122,-866,3477,252,259032
-257,162,-1044,3498,303,259140
-192,170,-1075,3486,305,258961
-154,166,-987,3490,279,258981
-181,227,-895,3449,243,259087
-198,262,-828,3487,361,258936
-144,197,-697,3450,332,258935
-140,103,-692,3524,234,258983
-186,80,-831,3517,228,258995
-85,125,-960,3473,323,259034
-3,81,-929,3527,266,259078
-18,30,-928,3492,360,258922
29,110,-746,3456,314,258948
83,158,-521,3459,293,258986
181,66,-250,3464,242,259117
111,-4,-284,3488,249,259060
223,52,-363,3355,283,258894
230,114,-544,3444,339,259025
290,59,-621,3497,317,258947
200,85,-681,3449,333,258905
184,174,-645,3451,316,258928
224,204,-536,3480,273,258977
251,119,-387,3531,271,259003
340,37,-220,3444,261,259021
424,55,-95,3460,242,259045
422,97,-88,3443,289,259033
553,116,27,3447,312,258950
586,135,113,3513,366,258895
630,145,217,3477,229,258951
695,96,441,3458,309,259005
723,-25,609,3481,303,258942
657,-28,603,3503,263,258985
616,27,460,3461,274,258909
513,13,144,3511,254,258935
701,-9,219,3497,198,258912
729,-54,409,3537,241,258960
674,-5,700,3483,284,258960
716,31,1012,3495,289,259007
779,29,1225,3535,240,259079
780,58,1263,3468,270,259081
799,172,1224,3476,242,258984
659,183,935,3485,334,258967
635,97,653,3463,312,259040
643,89,413,3503,316,258959
649,126,303,3475,333,258975
638,161,487,3489,352,258931
640,152,793,3448,282,259033
661,144,1057,3479,260,258986
665,139,1115,3509,317,258975
781,99,1099,3418,243,259061
773,83,974,3475,219,258961
750,117,932,3438,222,259040
715,137,961,3531,273,258989
642,84,1000,3496,292,258895
639,45,1028,3486,199,259014
635,26,975,3542,203,259014
557,33,800,3496,178,259062
547,-9,572,3472,240,259037
371,-34,147,3455,254,258983
358,36,-153,3353,277,258809
333,97,-244,3479,257,258910
333,67,-92,3453,277,258974
381,15,220,3464,189,259092
262,15,366,3418,216,258958
260,-13,309,3444,265,259102
333,-42,174,3487,250,259010
261,-76,-76,3462,301,259007
302,-18,-54,3425,263,258922
322,25,170,3477,222,259040
286,4,440,3474,250,259022
253,-10,527,3486,233,259036
263,2,481,3544,293,258974
361,16,402,3554,283,258942
388,-44,409,3559,289,259077
305,-43,428,3512,295,259074
308,-20,487,3458,306,258959
266,7,493,3485,329,258884
337,-20,601,3518,197,259030
346,-58,759,3511,182,259075
241,-86,814,3516,203,259045
108,-86,631,3416,240,258967
37,-111,280,3375,319,258908
-31,-131,-215,3422,323,258946
-119,-96,-535,3382,317,258800
-210,-25,-633,3428,311,258930
-342,-27,-599,3292,324,259136
-437,-73,-553,3439,345,259024
-365,-102,-575,3452,311,258999
-341,-82,-641,3509,374,259093
-261,-97,-680,3518,256,259080
-267,-130,-654,3491,277,259024
-273,-91,-623,3488,288,258988
-294,-36,-597,3492,326,259013
-287,-56,-595,3460,299,259052
-292,-101,-589,3462,286,259007
-265,-90,-525,3462,256,259024
-280,-49,-512,3507,286,258929
-173,-45,-435,3509,232,258951
-115,-15,-358,3484,233,259105
-37,22,-246,3510,206,258989
-60,35,-115,3565,173,258941
-14,35,93,3566,209,259003
-82,3,120,3502,200,259027
-42,50,175,3443,209,259028
3,64,141,3512,256,259130
31,44,141,3493,267,259054
91,40,186,3524,258,259057
155,58,298,3477,274,259066
149,36,421,3422,282,258995
127,37,480,3470,282,259050
100,52,441,3495,278,259033
43,129,351,3464,278,259066
22,94,179,3417,283,258954
-32,71,-28,3440,251,258933
-35,107,-154,3473,231,258913
-15,151,-222,3468,266,258951
-15,132,-135,3469,250,259009
-59,125,-34,3402,185,259067
-105,146,-29,3455,311,259089
-122,176,-108,3472,271,259035
-74,130,-201,3404,311,258943
-20,114,-277,3464,311,259031
-4,167,-274,3406,362,258933
86,252,-159,3501,292,259005
77,260,0,3514,231,259021
76,251,125,3520,262,258991
31,240,106,3561,331,258935
43,270,59,3498,288,258945
67,241,-75,3513,199,259022
83,214,-203,3467,271,258996
117,271,-253,3456,244,258969
192,319,-133,3478,301,259033
262,304,117,3574,330,259055
300,252,382,3479,247,258971
295,264,553,3481,258,259007
310,280,556,3506,220,258989
317,226,475,3421,344,258998
355,215,356,3372,291,259001
404,226,291,3444,284,259123
354,257,267,3485,314,259164
419,206,426,3491,275,259156
384,147,547,3522,229,259143
360,162,605,3500,234,259028
311,221,518,3523,271,258937
320,178,454,3476,233,258995
313,124,311,3464,245,259021
287,172,198,3468,259,259089
303,257,154,3497,322,258996
352,209,313,3477,289,259115
273,163,465,3463,213,259018
306,194,625,3520,251,259017
277,213,650,3516,303,258976
268,162,586,3468,273,259015
225,177,378,3585,269,258934
233,235,166,3484,227,259026
200,249,37,3450,243,259057
216,176,124,3446,237,258927
128,152,165,3480,233,258993
111,178,253,3418,241,259001
39,163,208,3467,225,259129
5,126,101,3458,239,259063
27,163,-21,3519,266,258995
37,209,-127,3516,306,258990
17,257,-118,3496,286,259056
58,243,19,3595,240,259076
15,177,162,3506,260,259069
-37,205,201,3435,208,259027
-85,213,147,3441,309,259030
-63,179,83,3480,361,259001
-113,183,-40,3523,280,258897
-78,294,-104,3470,271,258927
-115,364,-163,3549,165,258919
-103,312,-95,3512,206,258971
-188,283,-82,3431,235,259024
-208,362,-92,3543,210,259021
-271,363,-170,3502,280,258838
-283,287,-237,3519,336,258927
-343,302,-431,3513,321,258966
-270,388,-516,3492,291,258901
-281,353,-517,3439,324,259011
-272,285,-413,3486,252,258928
-317,295,-315,3500,249,258967
-349,347,-300,3559,262,258890
-389,284,-295,3424,282,259022
-346,218,-317,3452,273,259038
-365,242,-444,3525,245,258977
-372,324,-494,3485,270,259045
-372,293,-497,3525,278,258985
-342,226,-375,3546,298,259018
-355,224,-237,3526,213,258929
-359,272,-145,3468,234,259047
-374,241,-125,3459,275,259045
-403,170,-199,3514,221,259010
-430,209,-354,3529,277,259035
-348,295,-389,3486,263,258979
-352,290,-321,3543,308,258961
-311,194,-125,3517,292,258964
-362,141,-6,3495,271,259058
-386,163,-5,3441,222,258974
-387,168,-61,3499,283,258998
-372,144,-130,3450,278,258996
-380,233,-212,3478,200,259051
-332,294,-208,3551,229,259024
-316,265,-118,3532,291,258978
-257,206,28,3437,279,259019
-275,235,151,3482,285,259002
-335,262,160,3499,257,258995
-304,232,156,3512,190,259080
-325,183,78,3579,232,259096
-300,231,19,3456,250,259073
-253,316,-18,3436,239,259008
-228,292,26,3458,285,259031
-199,214,83,3462,284,258996
-265,229,214,3403,296,258953
-243,271,260,3446,268,258880
-262,228,262,3504,238,258950
-329,208,105,3449,295,258917
-276,235,-58,3467,280,258915
-240,330,-166,3481,289,258889
-183,287,-96,3492,362,258954
-179,246,38,3502,245,258991
-210,256,130,3463,298,258980
-212,285,123,3500,269,258958
-158,235,106,3533,291,259030
-163,195,58,3483,285,258992
-120,285,54,3425,215,258963
-97,371,35,3535,254,259065
2,377,160,3482,323,258973
29,320,278,3471,312,258973
27,314,389,3451,266,258906
-7,307,344,3456,274,259110
33,215,281,3517,274,259096
-33,168,104,3508,268,259049
8,235,-31,3429,217,258965
-1,276,-101,3519,273,258939
64,224,33,3519,238,258969
75,181,150,3483,311,258996
31,183,242,3446,289,259046
47,148,323,3426,269,259017
17,80,296,3487,264,258964
-14,112,157,3433,309,258998
-17,198,-73,3435,345,258889
63,212,-188,3408,323,258881
83,102,-184,3578,250,259106
4,19,-161,3429,207,258969
66,93,-27,3406,232,259004
2,83,24,3403,310,259035
-46,-4,-17,3442,256,258961
-34,-35,-102,3506,222,258879
-7,49,-197,3485,200,258882
-45,104,-324,3489,217,258980
28,116,-241,3507,227,259000
-48,58,-179,3478,283,258981
-13,102,-4,3422,266,258960
-42,114,60,3541,222,259052
-55,72,56,3409,289,259032
-79,89,-9,3442,206,259014
-26,133,-79,3515,221,259045
-88,178,-119,3491,320,259007
45,122,27,3514,214,259018
-18,97,77,3509,212,258981
-13,110,134,3507,209,258955
50,98,253,3481,310,259015
-4,38,285,3515,299,259040
-43,62,231,3527,251,258973
-84,172,103,3506,199,258985
-40,217,-9,3495,250,259042
27,184,-6,3489,302,259046
28,174,58,3505,297,258980
33,232,132,3486,254,259011
53,153,300,3466,276,259053
53,44,369,3459,291,258976
38,72,285,3504,251,258917
52,189,125,3523,239,258883
81,154,72,3460,305,258896
123,126,103,3484,272,258969
140,194,177,3495,268,258951
131,263,233,3422,258,259024
96,143,282,3453,232,258981
110,58,282,3518,272,259017
77,116,110,3527,274,259044
100,190,-28,3508,359,259019
93,154,-43,3493,320,258958
85,110,15,3447,283,258919
109,149,151,3475,256,258967
90,165,222,3519,280,259040
115,57,306,3457,343,259066
54,3,287,3463,284,259090
-21,50,150,3408,318,259078
42,168,43,3473,324,258984
67,126,-17,3528,223,259115
31,74,-53,3542,292,258926
101,111,84,3474,267,258947
-9,128,141,3485,310,259006
49,50,211,3505,300,259029
-63,-22,177,3521,301,258921
-102,-8,36,3484,238,258935
-62,61,-80,3424,286,258957
-75,55,-97,3493,291,258957
-89,16,-62,3464,250,258898
-71,47,79,3435,324,258872
-118,58,177,3465,275,259036
-122,-17,289,3511,231,259140
-184,-106,308,3500,126,259047
-188,-58,274,3498,208,258961
-195,19,172,3513,257,258927
-214,24,121,3478,248,258980
-190,18,129,3450,261,259022
-150,97,284,3385,255,258950
-218,107,367,3469,282,258990
-201,29,486,3457,297,259050
-279,-45,450,3548,200,259109
-274,33,322,3562,220,258973
-259,93,199,3459,274,258910
-220,96,146,3481,284,259070
-221,134,156,3523,234,259034
-221,218,152,3478,199,259011
-219,214,192,3427,279,258980
-200,144,266,3363,253,258962
-269,155,197,3489,206,259053
-231,229,118,3421,299,258958
-241,228,3,3403,293,258965
-205,201,-94,3430,172,258955
-215,275,-149,3497,240,258955
-189,356,-98,3480,253,258935
-174,283,43,3498,242,259010
-188,208,100,3498,219,258977
-200,238,58,3432,269,258965
-198,285,-82,3443,255,259006
-200,250,-128,3471,181,258989
-150,218,-105,3469,202,259120
-138,277,-50,3488,257,259087
-123,356,40,3466,288,258961
-72,283,172,3455,294,258897
-46,200,201,3446,316,259061
-60,186,122,3492,319,258928
28,256,72,3516,282,258986
-4,203,39,3592,225,258978
-23,212,-25,3502,254,258982
42,304,-22,3531,277,258983
42,352,15,3532,339,259048
73,244,158,3523,210,258933
35,172,254,3460,178,258970
10,192,180,3486,165,258924
71,208,99,3481,297,258904
59,194,-11,3517,323,259042
67,198,-103,3508,296,258949
75,284,-35,3440,278,258910
100,310,92,3503,296,259003
81,248,271,3423,289,259041
29,217,345,3471,296,258994
34,188,297,3459,264,259083
-9,170,160,3400,260,259067
5,142,34,3462,264,258918
36,174,-34,3489,302,258871
-32,181,-65,3479,322,258936
-53,163,-53,3453,274,258870
-43,141,-2,3399,223,259022
-49,110,-43,3401,247,259005
-113,110,-103,3456,250,258992
-178,140,-246,3463,333,258943
-116,168,-303,3436,362,258972
-120,232,-370,3562,342,258890
-104,291,-388,3438,286,258886
-145,350,-334,3428,266,258944
-81,300,-151,3434,250,259003
-124,242,-70,3412,254,259006
-128,270,-25,3471,253,258977
-118,290,-81,3427,233,258980
-85,263,-124,3443,144,258913
-113,301,-211,3477,267,259017
-57,382,-169,3474,307,259067
-85,415,-78,3545,335,259041
-33,314,91,3406,333,259010
-69,267,178,3487,269,258916
-28,259,190,3479,262,259136
-43,239,127,3453,280,259047
9,221,45,3569,285,258976
33,281,-22,3449,267,258981
11,366,-50,3421,241,258999
61,371,66,3409,220,258918
87,325,220,3513,270,258940
23,297,187,3448,284,258938
18,301,142,3369,319,258938
69,257,81,3516,216,258902
86,177,31,3518,249,258898
32,210,-51,3468,238,258967
78,284,-57,3449,297,258983
74,296,1,3447,281,258952
112,226,154,3601,243,258982
65,204,209,3523,256,258959
51,227,195,3461,164,258997
40,216,96,3418,285,258951
123,185,79,3468,250,258930
128,201,72,3484,312,258971
101,311,101,3544,282,258929
108,303,161,3543,353,259057
110,239,270,3526,303,259033
91,189,201,3448,256,259111
95,239,76,3456,215,259058
3,203,-96,3535,237,258903
36,146,-185,3395,257,258889
-6,186,-249,3460,248,259055
21,295,-217,3463,238,258986
31,261,-85,3476,246,259000
27,191,90,3431,229,259004
-1,172,139,3403,255,259040
38,226,91,3493,258,258965
30,169,30,3459,313,258967
84,90,-2,3493,291,258898
17,134,-13,3562,242,258929
16,239,35,3505,277,258998
34,254,166,3506,280,259026
29,199,315,3502,254,258884
-8,150,353,3526,183,258965
-33,211,333,3492,241,259015
-44,210,220,3487,267,259040
-27,192,46,3455,276,258973
-23,239,-48,3436,246,258888
12,334,-48,3441,245,258896
58,334,122,3416,276,259110
40,295,288,3471,284,259119
29,311,343,3442,160,259049
81,327,282,3497,254,259012
86,239,190,3456,265,259093
121,193,127,3496,179,258966
167,260,124,3427,253,259063
158,331,127,3498,317,259054
169,274,168,3499,330,259023
218,210,254,3460,285,258974
223,197,309,3533,278,258968
173,191,285,3553,277,258999
226,166,285,3521,303,258969
206,179,165,3501,272,258942
214,216,87,3488,300,259026
281,265,141,3485,254,259020
237,280,206,3513,306,259042
246,203,388,3525,362,258965
253,143,488,3465,304,259059
247,188,474,3468,239,259025
326,152,501,3465,315,258955
288,58,465,3492,285,259057
317,114,476,3471,256,259040
298,198,465,3428,237,258882
347,201,536,3460,340,258961
311,103,568,3479,295,259053
284,117,644,3570,273,259019
223,133,500,3515,301,259023
333,44,457,3459,288,258949
267,-39,335,3423,237,258955
302,33,335,3466,229,258913
237,116,297,3565,368,258960
331,80,524,3448,370,258938
265,56,658,3497,246,259136
244,116,694,3547,321,259054
228,101,675,3428,345,259007
225,-21,702,3490,326,258908
230,-38,639,3405,292,259089
193,66,505,3495,258,258994
120,110,414,3505,302,259004
189,37,486,3478,262,259035
171,15,531,3572,241,259001
63,77,441,3481,254,258967
78,80,397,3554,280,259000
82,-8,277,3548,280,258969
43,-57,136,3510,233,258958
46,72,-3,3538,300,258964
45,112,-6,3509,272,258934
82,56,146,3506,336,258945
25,27,270,3522,263,259040
21,66,273,3487,284,258985
-30,52,154,3477,275,258949
-16,25,-6,3511,281,258909
-29,38,-171,3526,234,258917
-97,135,-253,3523,211,258904
-158,134,-283,3489,300,259047
-80,139,-162,3550,295,258997
-168,122,-154,3519,224,258961
-120,139,-77,3487,189,258994
-161,103,-96,3473,228,258953
-133,40,-153,3466,209,259011
-154,59,-241,3524,211,259093
-103,110,-255,3484,275,258953
-133,124,-207,3465,220,258943
-114,132,-112,3448,166,258911
-166,150,-110,3503,283,259014
-172,180,-120,3426,249,258985
-126,138,-119,3474,236,259054
-191,58,-174,3471,277,259103
-198,74,-215,3505,309,259079
-155,149,-236,3526,219,259015
-199,124,-247,3498,269,259028
-141,88,-145,3515,277,259015
-154,111,7,3435,305,258927
-206,229,71,3466,267,259013
-204,239,58,3486,320,259066
-220,119,-46,3498,260,259055
-213,66,-142,3468,248,258960
-246,159,-207,3485,260,259059
-278,189,-158,3520,278,259106
-276,121,-51,3438,171,259144
-277,172,36,3418,215,259064
-354,278,-51,3513,272,259044
-371,251,-57,3583,295,259096
-381,94,-107,3493,250,259037
-516,71,-385,3454,207,258959
-512,200,-643,3481,290,259056
-440,141,-596,3540,264,259102
-481,4,-369,3491,271,259095
-564,31,-153,3449,206,259038
-686,139,-204,3504,234,259044
-602,96,-328,3416,297,259075
-519,26,-470,3497,253,258989
-510,71,-543,3475,224,259003
-548,150,-433,3533,363,259120
-572,159,-216,3449,337,258946
-580,139,-116,3496,285,258897
-543,205,-113,3483,233,259003
-539,235,-152,3477,318,259014
-524,195,-123,3483,251,259037
-483,142,-33,3511,247,259049
-451,146,42,3476,170,259027
-393,173,103,3497,153,258974
-374,147,116,3504,216,258946
-392,196,128,3487,260,259003
-429,291,161,3460,223,258903
-453,322,236,3414,216,259005
-467,260,361,3482,252,258991
-435,179,402,3414,175,259048
-387,210,359,3454,274,258980
-398,249,251,3460,201,259047
-358,268,193,3521,258,258975
-330,286,219,3503,303,259079
-394,335,234,3481,231,259052
-455,319,242,3470,252,258984
-405,279,279,3454,235,258951
-435,221,209,3510,263,258931
-405,251,132,3528,176,258966
-360,273,107,3501,256,258955
-309,220,219,3533,276,258947
-351,195,257,3550,229,258975
-300,241,329,3439,200,259013
-314,246,298,3469,248,259041
-296,185,256,3468,286,258948
-363,144,81,3499,330,259017
-327,202,-47,3463,277,259056
-276,209,-70,3496,311,258936
-212,161,34,3472,260,258985
-172,202,245,3406,211,259007
-156,320,452,3518,236,259013
-157,319,611,3423,271,258987
-194,217,528,3506,277,258948
-173,166,358,3484,258,259073
-154,217,121,3524,345,259052
-180,186,2,3506,291,259018
-171,140,47,3510,251,259060
-197,197,146,3503,212,259007
-246,287,160,3393,304,259051
-203,285,184,3447,331,259087
-206,188,168,3511,263,258962
-253,178,28,3545,234,259007
-271,247,-130,3473,267,258992
-259,239,-208,3423,299,258936
-241,164,-220,3451,297,259058
-220,169,-127,3393,249,259033
-254,226,-38,3442,244,259013
-221,204,80,3419,295,258996
-228,148,125,3437,271,259059
-227,183,62,3454,252,258969
-153,263,-4,3499,314,258989
-165,271,20,3491,366,258926
-176,266,30,3429,294,259069
-278,333,42,3302,266,259005
-283,346,55,3450,255,259068
-217,277,120,3410,309,258979
-307,274,42,3482,240,258877
-328,328,-75,3394,239,259003
-288,348,-190,3473,289,259065
-277,310,-246,3456,307,259004
-250,323,-235,3461,252,259020
-210,392,-106,3479,234,259005
-292,423,-37,3454,327,258961
-257,359,37,3516,274,258934
-304,331,-80,3482,228,258964
-276,351,-248,3473,257,259001
-201,341,-380,3445,343,258933
-203,311,-404,3455,235,258896
-238,319,-400,3465,236,258893
-199,419,-312,3486,337,258959
-259,420,-250,3517,324,259084
-210,383,-165,3447,324,259017
-258,347,-120,3403,294,259054
-287,347,-162,3459,232,259013
-287,315,-240,3445,276,258902
-238,286,-249,3504,234,258996
-258,293,-304,3511,248,259012
-232,330,-233,3606,301,258952
-252,335,-142,3474,332,259069
-247,309,-78,3517,310,259053
-275,302,-80,3444,294,258975
-229,325,-47,3388,229,259010
-246,302,-82,3511,262,259026
-172,311,6,3477,240,258938
-181,314,73,3463,268,258990
-157,319,220,3463,306,258887
-229,324,243,3504,319,258992
-185,329,211,3522,307,259013
-232,301,70,3499,302,258981
-178,272,22,3497,274,258932
-210,254,-65,3483,300,259034
-179,227,-51,3494,294,259001
-176,213,-4,3509,322,259018
-134,194,76,3419,210,259025
-162,225,155,3456,224,258943
-134,236,207,3406,253,259023
-194,246,144,3455,285,259152
-196,262,47,3454,269,258940
-211,259,-56,3467,253,258916
-183,236,-80,3420,212,259040
-209,258,-68,3512,274,259021
-214,311,30,3388,323,259032
-228,309,95,3398,257,258910
-259,292,167,3564,350,258856
-263,302,166,3513,294,258948
-288,345,61,3461,313,259060
-315,317,-88,3382,191,258972
-195,266,-167,3361,201,259072
-294,306,-189,3504,290,259033
-278,396,-158,3441,336,259021
-264,379,-40,3460,259,258950
-311,328,32,3495,289,259014
-308,377,-43,3459,305,258967
-263,462,-106,3437,302,258908
-195,387,-58,3534,328,258999
-251,334,-63,3468,330,259010
-292,411,-76,3408,234,259028
-240,439,-13,3376,265,259003
-166,350,183,3466,286,259077
-157,299,323,3476,253,259016
-211,365,338,3421,291,258948
-230,381,255,3429,203,259009
-367,276,-161,3440,289,258970
-375,321,-470,3439,238,258996
118,454,6,3517,272,259029
-112,354,371,3546,287,259010
-85,313,905,3374,281,259130
-204,323,810,3362,249,259033
-209,403,362,3310,301,259065
39,389,197,3451,327,259081
121,279,413,3523,302,259029
-127,242,528,3441,294,258984
-98,380,671,3329,280,259007
-121,385,416,3425,339,259053
14,289,242,3425,303,258996
-33,292,155,3497,269,258999
-30,356,292,3455,266,259105
-108,315,410,3481,289,258995
-66,251,427,3499,288,258978
67,265,296,3498,226,259000
158,322,243,3530,276,259002
124,300,377,3526,328,258987
86,257,516,3514,298,258876
6,260,527,3428,353,258998
29,298,401,3490,246,258992
26,281,207,3467,287,259014
35,214,110,3456,314,258955
1,208,57,3490,221,258943
-46,240,44,3398,229,258910
-13,221,63,3457,284,258957
95,186,141,3431,232,258987
44,187,152,3486,285,258933
39,264,79,3469,273,258959
-28,275,-54,3449,315,258996
20,237,-133,3455,280,258954
25,242,-224,3480,215,259070
5,309,-190,3461,213,258988
45,342,-96,3508,327,259036
79,299,40,3499,370,259031
142,333,122,3459,315,259019
-4,442,55,3489,333,259097
-7,496,-39,3469,244,259021
65,426,-58,3520,338,258997
-15,392,-129,3508,294,259041
-34,422,-151,3459,175,258955
-66,442,-134,3433,249,259024
-51,383,-76,3420,285,259003
-83,338,-2,3372,255,259008
-30,383,122,3406,245,258953
-196,396,-83,3458,330,258943
-196,414,-295,3385,292,258937
238,394,72,3500,285,258997
13,372,153,3599,187,259011
-25,400,401,3414,240,259039
-227,388,358,3476,342,258955
-185,326,140,3430,259,258973
-81,352,-37,3379,237,258982
-103,332,-39,3424,318,259022
-194,280,28,3449,353,259012
-111,300,142,3401,310,259001
-75,318,120,3428,322,258888
19,280,133,3379,306,258974
52,203,249,3529,356,259042
-62,234,283,3539,216,259001
2,321,314,3445,202,258974
-53,299,277,3479,345,258971
-49,201,158,3416,221,258866
88,228,258,3463,229,259007
-1,271,302,3482,353,259077
-3,245,393,3464,300,259062
6,231,389,3423,321,259056
60,270,348,3425,277,258980
202,237,520,3484,312,258966
-188,126,334,3454,319,258965
-369,399,-380,3310,260,258878
80,280,21,3382,352,258939
-10,-76,358,3687,353,259038
-391,-109,179,3380,206,258971
-614,547,-531,3261,284,258903
373,216,315,3445,428,258941
42,-444,574,3871,196,259231
-809,-129,-152,3325,42,258975
-315,635,-445,3154,371,258907
71,16,-325,3601,393,258986
-165,-334,-151,3547,120,258967
12,301,184,3443,212,258967
-64,596,538,3545,525,259153
-44,37,850,3429,341,259085
29,11,765,3402,82,259004
14,494,224,3437,227,259008
-41,529,90,3439,398,259102
262,171,731,3488,300,259099
-70,222,692,3576,141,259024
24,483,746,3381,315,259102
-176,329,432,3450,399,259103
-135,166,219,3393,227,258848
-226,350,-87,3480,224,258945
-261,382,-142,3444,337,259007
-421,130,-121,3442,377,258986
-430,168,-186,3428,205,258923
-248,337,-324,3416,315,258945
-248,304,-363,3416,316,259032
-268,121,-158,3441,150,259033
-248,210,136,3440,177,258972
-328,376,188,3463,281,259033
-277,268,119,3435,283,258984
-231,175,-31,3369,278,258973
-204,142,-190,3524,277,258981
-245,208,-125,3538,293,259005
-245,144,116,3502,306,258975
-279,74,201,3488,288,259035
-263,143,98,3419,275,259103
-273,141,-70,3423,291,258985
-243,113,-111,3416,324,258979
-323,94,-162,3513,291,259026
-334,166,-184,3501,371,259029
-334,131,-166,3461,413,258950
-245,85,-76,3465,271,258981
-290,51,-94,3425,173,259000
-252,102,-113,3457,234,258978
-305,33,-209,3368,342,258958
-279,-12,-224,3463,271,258983
-253,2,-200,3434,291,259012
-287,30,-279,3489,265,258931
-214,93,-299,3386,251,258922
-241,81,-431,3422,366,258973
-198,45,-398,3411,260,258964
-170,59,-273,3483,270,258932
-247,79,-228,3392,273,259011
-204,66,-205,3430,344,259009
-189,38,-275,3475,317,258975
-100,88,-312,3420,292,258962
-20,71,-304,3530,256,258971
-14,53,-136,3476,315,258936
-9,25,-7,3409,245,258927
7,83,74,3423,228,259034
33,105,112,3434,363,258980
87,77,99,3397,308,259035
9,88,70,3422,373,258940
108,143,116,3475,214,258979
134,173,191,3431,250,258943
144,162,254,3408,292,258873
170,192,311,3452,275,259039
133,239,281,3462,333,258997
181,247,258,3436,358,259056
73,224,175,3452,360,258932
126,254,148,3432,322,258918
177,309,190,3444,322,259058
140,277,208,3499,329,259050
132,267,199,3438,364,258998
174,288,243,3474,300,259047
135,285,189,3480,266,258962
199,266,282,3477,269,259000
110,262,265,3518,288,258956
115,340,250,3431,269,259028
115,373,224,3466,266,259012
155,321,211,3447,333,258921
118,256,229,3475,268,258984
99,289,255,3451,281,259017
87,292,273,3386,314,258982
76,259,301,3453,235,258960
82,223,266,3431,184,258999
52,263,246,3475,198,258940
43,312,174,3407,302,258909
29,243,101,3422,316,259061
18,172,85,3488,263,259062
74,203,136,3440,265,259070
20,275,171,3388,236,258964
37,227,247,3393,263,258955
-39,152,214,3437,309,258980
2,161,166,3424,303,259075
20,220,106,3426,331,258975
26,196,109,3381,309,259018
26,168,149,3451,211,259006
42,169,210,3511,223,259009
26,155,206,3419,269,258945
10,120,194,3429,200,258959
-4,68,186,3463,237,259030
10,110,135,3463,263,259016
-3,168,108,3422,296,258931
65,171,138,3442,282,259016
53,105,183,3497,220,258977
58,159,225,3491,250,258937
27,181,167,3467,282,258899
40,137,146,3470,310,258920
-7,81,49,3544,241,258997
29,169,7,3478,302,258991
18,254,-41,3479,330,259053
90,207,64,3431,232,259005
63,175,142,3459,285,258900
104,227,170,3426,308,258936
91,260,130,3445,301,258952
96,184,138,3364,279,259113
123,165,124,3505,213,259003
125,237,101,3449,207,259036
97,291,127,3414,291,259036
140,239,163,3418,414,258954
135,244,180,3414,306,259011
157,271,167,3427,308,258958
129,284,131,3504,342,259030
158,232,181,3461,282,259106
91,241,169,3443,285,259099
120,326,173,3459,278,258953
102,372,170,3415,273,259037
102,337,153,3402,241,258922
93,328,182,3391,216,258882
76,356,196,3459,257,258889
98,325,256,3529,273,258964
38,247,235,3450,208,258907
-5,227,180,3404,297,259015
0,278,83,3458,283,259048
-33,276,16,3434,295,258990
-30,210,11,3350,326,259007
-90,215,-17,3411,308,258981
-75,256,-58,3459,301,258987
-55,190,-48,3421,340,258962
-131,89,-103,3427,300,258870
-114,118,-103,3430,333,258978
-146,212,-155,3485,305,259001
-117,228,-95,3439,287,258960
-132,175,-65,3474,241,258997
-99,184,-31,3481,298,259123
-137,209,-74,3450,332,259015
-63,172,-51,3391,309,259049
-87,123,-17,3476,245,259002
-90,121,12,3509,176,259049
-65,164,84,3471,204,258963
-26,159,165,3436,248,258943
-52,160,160,3434,306,258951
-13,192,191,3441,366,258993
-20,210,216,3425,280,259020
-16,119,294,3380,282,259044
2,77,360,3432,290,258854
-34,105,325,3471,259,258970
-12,116,270,3445,302,259123
24,96,312,3480,301,259133
7,57,317,3472,335,258992
19,24,461,3457,267,258944
-61,-270,650,3552,248,259023
-640,-595,151,3500,194,259044
-229,-805,250,3348,276,258964
-650,-1195,-123,3578,237,259001
-1362,-618,-1569,3280,122,258713
547,995,-875,3176,536,258795
856,1524,-67,3796,588,259237
1309,766,2036,3757,357,259276
-510,-77,1905,3492,110,259150
-872,380,314,2970,71,258846
409,663,-724,3307,476,258928
690,-56,-353,3741,371,258917
76,-394,448,3644,134,258831
-1188,74,224,3228,177,258971
-1418,714,-1534,3076,411,258930
935,452,-784,3420,567,258889
453,76,-573,4217,109,259276
-424,519,85,3481,170,259078
41,796,1731,3193,507,259209
-1167,26,206,3628,241,259186
406,215,-55,3147,158,258698
772,562,-220,3770,342,259093
-111,258,168,3663,312,258964
-20,419,1388,3160,260,258954
95,585,1776,3398,356,259144
225,526,1331,3413,378,259045
873,355,1677,3594,307,259059
107,107,1214,3637,142,258924
-76,394,987,3323,253,258792
172,508,1017,3441,388,258934
291,382,1113,3565,268,259013
326,482,1339,3554,293,259043
-46,529,1249,3458,199,259067
-220,351,1008,3354,293,258958
-427,63,312,3464,256,258937
-138,67,128,3453,192,258925
-254,154,-47,3551,250,258970
-465,160,116,3395,306,258905
-351,242,301,3443,308,258991
-628,313,-155,3445,309,259051
-276,329,-87,3358,334,258977
-145,205,218,3578,303,259153
-551,37,450,3540,224,259006
-441,39,770,3412,205,258984
-635,-36,352,3416,310,259162
-645,-100,-240,3405,220,258888
-360,88,-454,3416,244,258929
-551,219,-467,3417,300,258971
-458,193,64,3222,373,259083
-659,55,237,3470,315,259121
-862,-38,-180,3385,278,258969
-617,-15,-516,3432,269,258932
-786,-109,-924,3496,408,258935
-775,-134,-820,3398,264,258930
-806,-13,-451,3400,232,259032
-959,56,-368,3391,337,259056
-812,-10,-290,3369,345,258914
-815,-60,-571,3414,297,258951
-803,-45,-859,3436,319,259017
-813,-3,-946,3429,236,258984
-836,-29,-824,3422,268,258951
-929,-22,-748,3404,276,258892
-875,96,-663,3394,228,259111
-906,150,-780,3425,266,259077
-887,54,-778,3347,305,259027
-879,24,-789,3397,285,258973
-904,71,-765,3447,305,258977
-886,97,-734,3419,302,258939
-826,76,-732,3454,305,258926
-842,115,-792,3484,289,258944
-757,232,-759,3423,266,258902
-782,294,-594,3465,273,258930
-724,187,-274,3449,343,258982
-747,121,-87,3528,223,259060
-811,131,-200,3504,283,258943
-663,170,-338,3472,308,258927
-588,122,-378,3419,243,259045
-582,148,-319,3399,387,258989
-572,283,-151,3356,270,259003
-561,323,47,3358,326,259090
-472,217,225,3391,294,258946
-493,172,232,3467,289,259045
-432,207,182,3450,333,258991
-435,195,200,3420,237,259007
-428,137,216,3412,318,258961
-476,138,245,3427,230,259079
-408,216,337,3376,302,259088
-401,241,358,3407,257,259097
-363,194,414,3485,237,258980
-343,152,340,3436,261,258999
-369,183,271,3403,303,258992
-359,146,242,3416,312,258932
-330,105,290,3460,384,259053
-388,96,301,3453,326,258995
-388,161,268,3406,230,259010
-425,158,229,3354,339,259005
-343,88,259,3327,346,259081
-334,44,279,3425,320,258963
-356,106,214,3455,302,258933
-344,100,127,3439,342,258990
-289,73,101,3414,321,258943
-353,15,49,3462,289,258943
-334,87,157,3412,309,259017
-390,91,174,3412,359,258962
-328,51,244,3456,307,259042
-387,32,203,3473,260,258943
-357,129,46,3429,241,259056
-299,170,-37,3426,228,259015
-287,108,-69,3418,261,258964
-360,57,-124,3377,228,259063
-335,144,-73,3416,246,258969
-279,145,-14,3435,260,259020
-332,100,-17,3434,250,259087
-353,117,-131,3335,259,259106
-284,168,-211,3360,344,258955
-375,143,-356,3388,320,259002
-296,109,-370,3351,228,259106
-342,165,-398,3396,296,259028
-289,242,-316,3355,336,259008
-330,202,-153,3367,308,258976
-312,156,18,3414,316,258932
-365,205,-15,3376,239,258840
-337,271,-75,3404,327,258926
-278,219,-146,3440,342,259085
-266,146,-188,3374,193,259020
-305,196,-136,3413,261,258890
-240,250,-7,3385,303,259044
-263,217,125,3379,338,258975
-230,193,208,3426,291,258958
-218,211,248,3405,300,259093
-244,283,186,3377,255,259059
-210,233,168,3487,268,259107
-272,169,111,3453,295,259036
-216,167,170,3463,234,258957
-274,188,125,3493,167,258908
-331,228,188,3326,275,258969
-336,188,188,3417,308,259034
-308,224,180,3397,311,258892
-324,285,93,3392,249,258887
-284,250,27,3445,312,258953
-312,169,-5,3406,273,258929
-310,224,-30,3387,238,259020
-329,241,0,3399,279,259064
-368,269,-65,3389,319,259021
-135,322,292,3460,298,258970
-424,363,49,3473,207,259060
-503,428,-167,3334,247,258863
-181,460,-12,3363,312,258922
-343,353,-187,3548,310,258972
-343,454,-94,3412,321,259051
-333,559,-12,3385,319,259067
-413,506,-89,3387,290,259092
-307,549,-98,3383,260,258976
-212,638,-36,3410,253,259041
-231,661,42,3440,269,259108
-389,599,-56,3435,265,259056
-342,628,-175,3335,257,258996
-192,673,-212,3369,357,258943
-254,620,-214,3430,346,258955
-220,598,-18,3380,279,258973
-351,572,15,3398,352,258933
-264,616,-3,3369,397,258919
-222,581,-16,3385,351,258958
-267,463,-181,3398,309,258939
-259,394,-177,3306,278,258921
-286,394,-171,3335,205,258992
-364,350,-127,3392,267,258974
-226,281,96,3384,260,258906
-375,238,39,3428,314,259042
-344,355,15,3368,274,258944
-209,365,42,3475,358,258919
-368,147,-107,3546,326,259001
-407,49,-284,3359,242,258958
-170,139,-167,3399,233,258964
-378,55,-190,3471,242,258935
-275,-2,64,3334,317,258928
-355,6,159,3430,291,258978
-380,54,-5,3398,178,258976
-335,48,-98,3343,317,259031
-234,-45,-205,3443,302,259011
-337,-123,-224,3343,186,259011
-293,-66,-294,3347,259,259055
-636,-73,-808,3264,307,258896
239,59,286,3329,323,258937
-49,-187,778,3692,255,259234
-518,-209,644,3313,155,259003
-461,145,117,3274,268,258941
-86,-15,-185,3463,330,258994
-248,-254,-331,3388,201,258978
-98,-118,118,3342,196,258993
-374,-46,359,3356,399,259090
-391,-113,400,3282,373,258990
-105,-75,324,3359,170,258947
-126,71,77,3457,294,258967
-130,169,165,3415,293,258925
-48,176,379,3399,250,258939
-17,273,607,3427,295,259101
-322,826,-145,3472,332,258999
659,313,901,3330,477,258910
-51,-783,910,3805,277,259325
-906,-408,164,3203,-62,258844
286,1054,23,3140,432,258888
-91,-23,-238,3762,641,259339
-666,-983,-17,3204,78,258951
-35,162,27,3236,96,258784
-409,712,-522,3503,566,259065
-125,49,-20,3250,434,259056
199,-374,773,3546,44,259015
-397,416,271,3472,119,259053
-263,752,144,3223,446,259012
-151,56,52,3472,407,259132
80,-146,110,3406,82,258950
-88,453,-42,3491,279,258981
-243,431,83,3413,533,259068
-152,-70,464,3350,363,259072
-73,60,331,3450,141,258970
40,539,185,3397,292,259001
-106,387,154,3357,437,259144
-59,55,414,3379,277,258975
-44,265,266,3355,281,258962
-89,488,17,3448,351,258925
104,231,179,3418,397,258949
-17,84,236,3431,200,258950
10,280,216,3370,288,258981
69,362,360,3420,399,259087
-115,209,261,3506,284,259183
159,256,421,3400,187,259118
-50,294,283,3515,251,259073
-155,248,85,3379,214,259026
200,284,307,3434,310,259036
52,178,323,3542,315,259094
-106,86,318,3423,333,258987
-64,160,379,3431,214,258981
-124,172,160,3400,255,258967
8,166,171,3345,251,258987
25,116,198,3390,179,259002
13,143,267,3346,311,258945
-60,129,193,3316,290,259104
-52,41,183,3354,274,259060
-174,16,1,3435,279,258982
37,192,62,3345,293,259021
-26,160,162,3434,313,259007
-154,-26,134,3332,306,259082
-71,20,90,3338,212,259054
-27,187,-58,3476,274,258918
-35,126,-13,3408,260,259003
22,29,234,3378,336,259041
-119,49,274,3386,262,258981
-106,247,190,3385,255,258958
69,273,194,3410,375,258952
52,227,133,3426,307,258851
30,289,135,3353,274,259027
-58,337,109,3292,259,259067
-68,269,91,3324,339,259003
84,228,190,3299,327,258969
-42,264,90,3365,209,259122
-43,329,86,3385,275,259111
-56,318,159,3463,326,258966
-90,294,126,3432,304,258950
-73,332,130,3396,276,258890
-99,306,92,3357,258,259001
-103,211,160,3352,261,259005
-150,148,189,3378,277,259086
-156,136,233,3360,269,258926
-195,155,253,3410,278,258941
-280,151,169,3397,268,258987
-220,151,151,3418,324,258937
-292,132,58,3432,289,258929
-257,134,-20,3429,325,258853
-262,102,13,3451,230,258975
-350,41,-31,3415,274,259086
-344,52,29,3332,314,259003
-398,103,17,3414,322,258970
-378,40,22,3374,365,259004
-405,-69,41,3334,316,259006
-407,-56,-82,3402,304,259040
-375,18,-113,3477,297,259099
-265,-23,19,3406,299,258993
-239,-119,196,3477,242,258920
-276,-38,304,3431,300,258977
-184,67,272,3437,308,258953
-165,-7,180,3453,276,258940
-61,-36,105,3422,213,259043
-38,21,19,3426,183,259066
-40,53,-21,3414,244,259004
36,-33,121,3373,240,259011
63,-93,170,3412,277,259015
108,19,103,3427,274,258953
144,72,83,3417,360,258987
166,73,88,3461,295,258982
222,122,112,3327,222,258892
228,264,172,3385,257,259124
197,276,210,3425,290,259130
189,244,294,3310,267,259009
218,283,341,3399,243,259004
118,395,235,3458,323,258967
136,462,218,3430,332,258913
224,465,260,3467,374,259056
68,463,149,3376,274,259039
175,555,166,3403,238,258990
60,539,109,3457,289,259059
93,492,187,3440,173,259009
52,458,227,3521,268,259018
-48,491,237,3485,294,259030
-56,518,256,3333,300,259060
-83,497,314,3401,292,259145
-207,478,217,3425,267,259033
-186,523,199,3412,244,258989
-183,456,237,3377,363,258993
-201,317,239,3415,304,259013
-238,362,279,3317,292,258956
-205,433,247,3400,299,258991
-267,371,201,3383,295,259000
-264,334,124,3407,270,258936
-245,347,60,3442,285,258988
-267,394,-46,3406,284,259061
-193,331,-18,3426,382,258971
-170,218,-3,3404,282,258876
-179,166,30,3347,302,258913
-185,154,74,3304,327,258958
-143,164,166,3342,322,259022
-90,95,226,3467,330,258987
-180,32,175,3366,235,258973
-116,56,130,3355,321,258957
-37,17,124,3367,314,258993
-52,-56,117,3436,307,259004
-30,-147,169,3328,374,258948
66,-170,241,3406,302,258873
153,-191,228,3533,325,258972
140,-196,86,3421,265,258942
182,-198,11,3521,329,259021
284,-185,0,3513,280,258965
289,-188,-13,3459,298,258984
317,-205,33,3391,316,258986
320,-203,107,3357,284,258960
342,-96,43,3355,251,258991
335,-56,-21,3345,266,258958
458,-58,73,3367,268,258972
455,-68,112,3419,238,258981
363,46,111,3371,260,259068
387,106,95,3384,317,259097
480,38,171,3400,360,258985
473,41,225,3322,259,258927
462,148,252,3278,331,258985
461,172,261,3378,368,259023
439,122,243,3400,339,259037
410,115,170,3413,280,259035
431,236,116,3409,268,258982
449,201,177,3475,338,259004
345,102,181,3456,228,258943
333,152,158,3376,247,258885
306,259,104,3438,296,258976
261,213,115,3418,308,258961
128,183,114,3448,254,259005
102,317,179,3345,236,259025
-22,356,109,3342,279,259073
-84,281,81,3373,334,259033
-92,252,102,3409,234,259021
-140,315,116,3426,249,259093
-282,347,8,3431,294,259064
-247,308,34,3366,288,258978
-299,293,-48,3391,283,258970
-423,353,-212,3363,234,259020
-433,367,-245,3387,305,258947
-447,248,-133,3409,304,258975
-642,197,-260,3362,200,259071
-641,263,-306,3370,282,258954
-613,245,-247,3330,268,258935
-589,172,-190,3336,296,259051
-658,198,-184,3327,206,258983
-784,276,-366,3355,238,258983
-720,293,-463,3369,207,258960
-645,282,-393,3344,215,258899
-670,337,-371,3448,254,259010
-646,347,-161,3428,363,258982
-672,227,-87,3383,356,259064
-642,112,-219,3365,245,258897
-567,205,-404,3381,241,259010
-416,261,-463,3378,302,259037
-363,203,-365,3391,265,259084
-341,157,-244,3441,242,259159
-287,241,-225,3415,285,259148
-149,258,-255,3384,314,259074
-131,256,-299,3459,332,259041
-20,237,-228,3412,310,258954
11,298,-172,3316,337,259008
42,335,-101,3328,372,258970
72,287,-76,3394,289,258982
207,252,-47,3331,302,258984
268,229,3,3358,313,259022
275,228,7,3398,285,259047
301,217,21,3302,284,258995
450,220,98,3351,263,258958
404,169,75,3415,202,259043
415,247,79,3319,241,258987
435,270,54,3409,316,259028
418,243,36,3402,304,259039
490,216,90,3424,254,259074
484,245,173,3436,318,259025
485,231,274,3420,304,259037
512,194,357,3410,284,259090
423,217,275,3383,241,259089
458,278,223,3397,294,259015
423,266,202,3432,266,259110
329,213,223,3410,259,259016
299,234,284,3360,254,258944
253,249,315,3400,346,258967
159,169,271,3373,323,258932
102,125,232,3383,284,258919
52,188,127,3412,266,258987
-7,238,62,3413,316,258912
-47,206,126,3422,284,258970
-95,160,231,3395,231,259054
-236,207,264,3334,194,259006
-265,248,272,3362,273,258975
-291,194,266,3406,232,258977
-352,150,225,3407,209,258958
-421,191,206,3347,268,258928
-499,231,132,3303,325,258998
-490,179,123,3355,258,258913
-570,134,23,3394,278,259071
-609,161,-21,3310,227,259097
-619,216,37,3391,315,259005
-621,184,113,3370,336,259029
-670,166,101,3369,298,258979
-673,221,66,3361,309,259026
-671,256,-19,3432,282,258954
-644,175,72,3322,296,258950
-671,179,120,3382,322,259001
-582,212,208,3373,299,259022
-604,254,192,3397,324,259014
-490,175,157,3363,324,259004
-451,194,102,3384,275,258958
-336,217,117,3383,318,258952
-430,232,46,3409,313,259060
-320,219,125,3425,303,259005
-300,194,116,3441,335,259052
-221,195,100,3490,301,258990
-190,245,91,3402,373,258936
-93,142,146,3399,369,259001
-121,17,46,3418,296,259018
-77,34,-58,3365,283,258941
-34,49,-247,3406,279,258939
58,-113,-230,3410,290,258965
0,-165,-279,3394,189,259029
128,129,-245,3406,225,259051
493,454,124,3480,303,259127
592,284,620,3501,296,259100
382,-42,777,3383,228,258995
244,-38,311,3349,279,259030
359,61,-315,3347,319,258869
502,-65,-557,3443,330,258897
580,-84,-225,3438,274,258924
508,53,250,3414,280,258978
342,27,443,3397,311,259016
280,-118,228,3363,336,258997
439,-50,-183,3406,265,258981
521,76,-305,3497,283,259007
353,29,-116,3466,331,259045
247,44,270,3295,292,259022
264,183,376,3343,324,259036
233,225,298,3364,336,259025
204,166,126,3376,322,258946
275,208,116,3435,279,258925
146,285,148,3462,233,258878
80,377,219,3419,354,258968
82,403,248,3440,345,258968
47,535,112,3431,290,259125
-68,632,-139,3386,289,259069
-102,598,-187,3388,280,258979
-228,440,-107,3313,279,258967
-252,398,22,3422,234,258950
-243,380,166,3401,292,258970
-334,267,161,3497,327,259042
-388,193,106,3340,278,258996
-440,208,-14,3348,283,259048
-486,254,-102,3374,326,259013
-410,261,-4,3386,259,259084
-433,234,206,3476,302,259106
-564,206,172,3397,340,259078
-577,224,85,3342,295,259075
-596,192,-138,3435,260,258993
-533,166,-196,3420,303,258921
-565,194,-116,3386,290,258962
-622,188,3,3407,314,258972
-527,190,167,3418,275,258946
-554,122,112,3375,256,258968
-566,38,-109,3343,253,258983
-557,47,-240,3320,202,258972
-529,86,-371,3341,231,259017
-391,121,-77,3336,275,258985
-261,-32,360,3417,246,259071
-804,-162,-47,3476,185,259094
-409,-37,-137,3254,213,258946
-407,-195,-476,3491,304,259085
-439,-338,-508,3432,206,259011
-317,-216,-258,3410,161,258933
-469,-171,-337,3396,329,259037
-283,-267,-462,3282,311,258908
-34,-271,-510,3417,282,258888
12,-104,-598,3459,268,258975
96,122,-317,3400,224,259014
249,110,268,3431,289,259008
253,70,559,3438,268,259051
357,200,593,3376,249,259032
326,270,270,3323,269,259105
517,215,270,3388,335,258909
456,187,289,3397,255,258973
483,337,496,3368,323,259005
449,477,634,3410,361,258997
516,447,696,3424,362,259040
605,473,706,3394,285,259057
674,616,742,3393,291,259047
731,725,920,3344,373,259081
765,731,1087,3424,400,259070
681,722,1047,3402,356,259070
815,817,1019,3439,252,259011
825,848,944,3526,302,258982
740,739,933,3382,365,259030
698,667,1003,3339,252,258889
578,643,942,3406,276,259056
541,629,793,3395,278,258975
570,574,622,3475,227,259008
416,473,334,3429,256,259073
395,482,236,3381,251,259160
201,415,142,3367,262,259090
146,347,200,3363,242,259093
111,321,206,3438,241,259154
8,300,80,3432,303,259078
-39,235,-68,3376,286,259014
-64,172,-178,3417,271,258979
-169,124,-261,3453,266,258944
-208,138,-278,3358,256,259030
-247,119,-204,3387,251,258979
-265,63,-166,3384,263,259042
-282,32,-175,3403,193,259033
-296,57,-206,3338,229,259101
-271,34,-226,3388,225,259063
-250,-33,-249,3336,283,258882
-308,-77,-284,3363,259,258997
-247,-34,-233,3437,275,259009
-259,-42,-256,3380,307,259051
-263,-100,-232,3409,274,259117
-269,-98,-258,3458,222,258971
-241,-51,-282,3442,256,258877
-218,-72,-253,3523,307,258953
-182,-146,-226,3463,314,259023
-188,-129,-234,3307,283,259027
-119,-60,-250,3347,235,259043
-96,-86,-239,3432,290,259001
-65,-128,-156,3364,329,259055
-30,-104,-60,3345,330,258941
-63,-34,-85,3403,288,258891
-9,-48,-140,3360,284,258923
51,-79,-194,3467,345,258970
96,-50,-265,3440,290,259068
100,-13,-247,3387,297,258958
147,-61,-129,3405,332,258897
174,-59,-70,3366,285,259004
184,28,-81,3355,253,259089
185,122,-110,3413,289,258899
243,55,-77,3424,384,259015
224,4,-80,3408,344,258929
300,50,-30,3375,213,258921
234,129,-19,3404,296,259106
263,99,70,3372,308,259081
265,63,144,3390,306,259025
280,121,173,3341,311,259109
276,238,148,3370,339,259021
280,224,174,3419,227,259021
272,188,203,3416,232,258959
284,219,227,3377,246,258867
265,244,220,3406,371,259055
233,203,245,3443,380,259060
233,191,337,3402,283,258972
202,300,354,3336,311,259157
152,355,336,3439,383,259079
173,312,343,3467,356,258994
138,308,282,3379,300,258944
138,371,199,3437,251,259009
145,380,192,3425,297,258949
107,315,246,3469,304,258931
60,315,258,3420,250,258967
56,398,278,3361,253,259050
34,416,218,3403,274,259044
82,378,220,3393,368,259002
38,374,100,3460,365,258965
38,432,51,3430,361,258995
24,413,34,3375,385,259020
65,337,114,3415,344,258943
-21,373,90,3413,326,259060
7,467,67,3321,299,259045
-13,482,11,3395,270,258956
5,413,24,3427,304,258959
-37,383,-7,3403,283,258958
-17,418,15,3367,346,258950
-34,389,20,3331,305,259045
-3,341,83,3367,261,258965
-54,342,95,3444,222,259028
-10,437,136,3392,292,259018
-36,468,136,3390,274,258934
-38,397,125,3339,377,258996
-10,381,94,3388,325,259035
31,395,43,3499,342,259012
15,359,27,3369,273,258970
53,290,121,3386,302,258942
10,265,188,3382,274,259003
5,321,213,3389,266,259003
36,325,187,3419,364,258964
44,257,151,3352,256,258940
86,251,123,3382,267,259048
87,276,94,3480,323,259072
60,217,130,3483,297,259023
95,115,203,3379,224,259053
48,116,234,3372,209,259033
29,184,197,3362,249,258989
25,176,167,3358,362,258992
29,121,130,3354,316,258958
10,118,46,3447,259,259098
-12,128,0,3357,301,258978
-8,76,40,3351,285,259082
-27,16,68,3461,341,258973
-68,41,95,3452,264,258977
-100,95,94,3400,260,259046
-123,65,84,3401,324,258978
-137,37,63,3470,252,258995
-160,63,0,3465,303,259011
-168,76,-105,3395,330,259080
-137,15,-104,3213,331,258960
-203,-30,-88,3414,272,258984
-197,36,-14,3428,242,259021
-211,118,30,3429,257,258923
-245,77,38,3372,214,258930
-237,42,1,3399,255,259035
-216,95,-56,3376,316,259054
-230,131,-105,3425,322,259038
-153,39,-53,3416,196,259142
-243,39,8,3431,216,259142
-258,99,18,3364,261,259025
-262,162,63,3373,300,258968
-244,147,131,3362,320,258986
-272,154,82,3421,347,259083
-233,237,29,3404,295,258995
-208,237,-16,3402,316,259034
-169,164,10,3461,298,258901
-173,136,54,3423,236,258940
-169,236,81,3383,249,258964
-181,272,97,3396,260,258853
-127,263,164,3499,344,258977
-133,296,92,3457,303,258993
-100,392,77,3414,275,258934
-55,367,53,3396,311,259035
6,279,139,3447,255,258986
-34,256,145,3446,253,258975
22,329,205,3373,306,258998
5,323,164,3434,264,259024
21,289,163,3408,267,258966
13,317,71,3422,301,258923
54,355,17,3406,209,259068
40,304,22,3448,266,259035
96,195,83,3433,325,258950
45,193,67,3380,292,259035
51,272,58,3450,307,259045
69,280,61,3396,336,259047
116,203,99,3378,272,259042
45,203,18,3414,190,259022
65,257,-49,3384,276,258969
38,186,-85,3378,309,258998
102,46,-3,3392,306,258909
43,-3,34,3443,298,259066
35,57,79,3383,312,258956
10,65,103,3368,273,258933
22,35,140,3306,308,259000
-40,88,70,3380,315,259082
4,150,28,3419,276,258982
-30,104,31,3358,313,258909
-17,-5,38,3416,321,259023
-45,-23,82,3476,290,258919
-75,37,111,3482,278,258963
-80,39,172,3449,241,258904
-125,20,188,3461,296,259050
-170,61,150,3424,301,258963
-183,132,76,3455,339,258985
-152,94,62,3452,391,258962
-162,37,81,3400,323,258938
-219,30,109,3370,305,259000
-255,73,154,3432,220,259093
-239,97,207,3388,335,258981
-331,92,106,3392,359,259027
-343,95,-25,3390,307,259074
-272,180,-27,3456,323,258897
-379,178,-89,3481,312,258882
-241,110,35,3431,299,258946
-361,123,25,3453,261,258953
-297,224,58,3390,285,258905
-237,263,119,3442,343,258996
-308,221,122,3452,326,259023
-241,242,143,3258,277,258900
-261,288,44,3476,304,258982
-193,278,68,3395,348,259018
-176,207,10,3377,277,259067
-128,184,110,3385,224,258996
-186,268,81,3446,247,258985
-148,318,154,3370,269,258986
-90,360,236,3428,304,258929
-184,346,128,3406,229,258830
-95,405,96,3415,313,258980
-55,325,74,3389,322,258956
-30,217,93,3436,363,258946
-34,224,160,3366,344,258945
3,270,191,3344,379,258961
-24,238,181,3328,361,258966
9,199,195,3388,337,258960
0,267,66,3420,247,258981
6,360,39,3414,298,258955
51,204,101,3437,309,259068
47,38,157,3486,296,259014
33,47,147,3394,164,258984
109,129,122,3442,300,259006
67,27,143,3428,343,259065
78,23,180,3461,253,259037
116,103,139,3458,238,259005
53,111,29,3443,315,258984
95,12,3,3418,396,258964
110,-25,-13,3432,271,259022
189,31,34,3443,232,259005
76,2,59,3429,289,259009
80,-25,169,3417,272,258936
71,8,112,3386,256,258907
71,84,47,3306,232,259003
47,114,-77,3396,245,259073
132,68,-57,3389,285,259002
78,-7,-26,3420,304,259012
9,1,-13,3376,268,258942
40,76,66,3393,333,258998
46,19,125,3372,348,258987
-60,0,64,3417,265,258971
9,119,43,3387,228,258921
-65,194,-87,3389,340,258976
36,123,-72,3377,320,259015
-22,-5,-98,3446,211,258849
-8,37,-89,3396,231,258991
0,91,-87,3380,255,258968
-33,36,-40,3398,240,258988
-43,41,-19,3393,240,258927
-38,125,-32,3382,287,258930
-104,202,-81,3364,328,259071
-6,137,-29,3376,390,259137
-60,123,-11,3403,317,259145
-19,146,-19,3396,286,259061
-9,166,34,3396,293,258915
5,145,95,3442,222,258948
-24,209,65,3423,255,258993
-57,284,29,3422,260,259000
-28,288,23,3399,316,258983
17,254,22,3450,267,258947
-22,236,-4,3399,312,258934
56,245,36,3408,374,259060
58,196,104,3386,351,259045
89,216,128,3372,313,258984
73,258,115,3366,301,258964
71,334,88,3377,296,259055
91,299,98,3405,394,259120
131,269,97,3393,253,258965
158,245,155,3374,258,258938
155,252,202,3431,300,258876
153,239,256,3427,296,258956
196,251,303,3463,294,258961
165,264,218,3414,315,259015
139,319,112,3394,330,259081
200,356,117,3454,276,258995
200,281,89,3508,326,258962
172,214,156,3456,244,258976
181,231,187,3376,265,258971
188,213,244,3416,253,258969
178,194,299,3511,316,258967
122,242,238,3391,296,258876
144,343,211,3388,307,258890
137,335,174,3373,406,259112
123,248,157,3422,278,259123
93,190,129,3440,296,259056
83,164,115,3389,303,258942
89,106,150,3384,312,259046
69,92,152,3377,246,259105
25,154,153,3386,242,259003
-35,241,67,3426,303,258936
40,231,66,3418,321,258966
-67,201,-9,3376,290,259025
-9,198,12,3399,264,258991
-69,213,47,3538,261,259032
-75,156,157,3462,264,258933
-101,124,184,3301,304,259051
-87,183,191,3369,313,258956
-157,249,89,3345,325,259024
-128,258,90,3363,362,258926
-194,197,42,3396,349,258980
-212,196,11,3398,326,259034
-194,182,8,3441,320,259035
-219,117,17,3508,354,258967
-254,57,27,3435,250,258929
-242,108,68,3430,289,258994
-305,152,15,3417,277,258894
-249,157,9,3378,298,258925
-268,108,-16,3407,328,258969
-291,117,-38,3351,305,258947
-244,128,-6,3392,248,258865
-260,66,41,3438,222,258934
-281,78,39,3422,274,259062
-238,186,43,3419,232,258983
-272,255,4,3422,303,259000
-239,189,59,3365,275,259019
-250,168,83,3456,247,258949
-233,198,56,3455,315,258981
-209,175,-8,3420,256,258958
-134,106,34,3398,287,258984
-164,124,28,3412,280,258903
-195,234,-28,3402,281,259000
-169,307,-27,3338,339,258980
-166,270,-77,3367,355,259055
-145,256,-102,3369,320,258961
-80,254,-83,3412,252,258833
-139,237,-105,3380,292,258908
-39,187,22,3348,242,258977
-110,174,-3,3352,238,258956
-85,252,30,3402,302,258998
-61,323,7,3406,321,259017
-64,282,-19,3429,268,259109
-112,248,-42,3408,290,259043
-28,279,6,3359,313,259071
-90,248,12,3417,325,258995
-64,160,89,3451,312,258914
-91,155,141,3404,276,258965
-87,226,114,3349,222,259043
-61,252,101,3440,282,259049
-89,235,86,3385,388,258993
-119,258,46,3414,317,258906
-115,286,46,3383,254,258992
-130,186,96,3354,261,259053
-97,100,177,3383,274,259022
-163,198,185,3386,266,259085
-178,262,133,3457,308,259106
-179,220,156,3383,351,259111
-179,194,121,3410,169,258970
-164,242,72,3461,326,258980
-172,263,37,3414,349,258996
-170,179,92,3307,258,258935
-186,163,94,3378,306,258951
-207,214,104,3408,362,258975
-183,300,123,3456,256,259028
-203,276,106,3417,267,258999
-176,285,117,3369,346,258973
-242,287,51,3443,341,258994
-180,294,54,3462,356,259005
-152,194,63,3383,329,258967
-167,127,74,3373,294,259068
-164,200,75,3425,226,259132
-136,259,107,3413,329,259025
-157,197,130,3417,313,259111
-156,196,168,3334,271,259030
-148,278,109,3388,280,259040
-170,303,68,3382,289,259077
-70,188,96,3404,355,259075
-161,160,124,3397,260,259066
-159,202,56,3473,220,258989
-174,290,-77,3462,272,258903
-6,292,42,3467,274,259000
-88,239,-5,3511,244,258973
-88,310,22,3335,337,258964
-41,339,70,3399,350,258946
-82,247,100,3393,287,258978
-150,199,-16,3351,228,258903
25,209,70,3300,274,258925
-140,186,-57,3336,276,258953
5,226,57,3361,313,258986
-57,265,16,3524,387,259063
-101,271,-26,3412,315,258964
-21,219,40,3439,291,259009
-10,108,99,3498,296,259128
-80,101,96,3415,250,259002
-101,168,62,3375,268,258965
-90,150,48,3381,331,258903
-62,110,67,3383,325,258884
-110,110,52,3429,229,259023
-162,174,-2,3442,298,259063
-143,121,27,3369,365,258988
-92,3,64,3373,254,258926
-197,-35,79,3375,225,258929
-157,10,94,3404,302,259027
-191,-8,95,3421,295,259046
-166,-30,117,3329,271,259035
-225,11,79,3409,224,259031
-190,75,78,3394,190,258943
-255,27,83,3435,238,258985
-240,-74,124,3412,245,258965
-256,-102,94,3378,309,258993
-242,-80,101,3396,290,259033
-258,-90,75,3430,262,259024
-242,-69,108,3395,239,259073
-316,-16,65,3430,285,259034
-289,77,73,3413,269,259014
-304,50,50,3369,370,258957
-279,-7,81,3382,287,258991
-306,-13,77,3396,319,258999
-296,43,73,3398,261,258887
-284,34,68,3387,325,258992
-235,-3,107,3434,335,258999
-290,36,60,3408,265,259048
-235,116,18,3391,188,259006
-212,74,31,3434,308,258987
-193,-19,52,3492,243,258960
-176,34,91,3402,252,258983
-191,122,40,3414,275,258973
-193,109,86,3436,277,258991
-159,56,94,3379,215,259016
-170,126,90,3376,318,258913
-135,200,84,3362,236,258947
-85,133,123,3407,368,259073
-68,70,129,3437,326,258975
-64,98,104,3474,283,259043
-35,169,95,3394,231,259038
13,190,124,3254,291,258856
-23,193,50,3306,276,258970
30,245,37,3405,254,259000
54,272,17,3424,287,258924
53,223,55,3329,298,259002
66,206,79,3405,251,258912
95,218,86,3472,296,258970
112,227,57,3425,310,258858
209,212,88,3384,335,259075
125,182,39,3444,300,259053
129,228,40,3398,287,259008
145,280,61,3387,304,259009
118,187,53,3389,299,258901
152,93,105,3355,260,258982
95,91,110,3354,299,258975
132,169,66,3488,350,259125
160,142,104,3438,367,258999
129,123,61,3413,320,258967
162,199,44,3449,259,259024
122,269,55,3344,337,259030
113,200,116,3395,332,259044
110,132,153,3387,235,259004
72,151,141,3396,329,259068
79,186,87,3427,271,259070
100,148,134,3462,294,258972
59,163,148,3424,282,258978
76,201,144,3476,252,258945
31,214,109,3452,299,258996
49,149,86,3402,317,258950
49,110,50,3441,288,258931
30,171,86,3476,200,258922
36,175,119,3396,271,258969
17,140,174,3398,292,259027
-52,149,126,3330,285,258914
5,260,84,3324,330,258961
-13,278,52,3421,279,258965
33,182,114,3355,254,258955
1,145,115,3322,269,258936
-3,207,105,3370,317,258896
17,205,59,3343,334,258907
41,112,83,3353,215,258903
-22,124,13,3413,252,258974
4,248,16,3363,254,258996
-11,294,55,3345,336,258952
1,244,93,3412,350,258885
-39,242,50,3361,244,259019
40,252,27,3355,289,259027
28,164,-31,3424,286,259018
47,117,-52,3384,308,258904
80,185,-82,3414,303,259049
69,244,-105,3396,281,259053
73,205,-23,3415,317,259029
91,178,80,3398,213,258945
82,241,127,3395,245,259024
45,274,74,3319,329,259055
75,215,20,3325,319,258966
148,186,-9,3355,268,258996
112,245,-14,3395,315,259000
107,319,5,3411,278,259005
129,273,95,3338,316,259099
132,183,119,3421,303,258998
114,196,73,3393,265,258943
135,268,43,3386,312,259079
123,217,54,3482,260,259065
118,141,74,3376,367,259043
82,187,28,3412,313,259026
84,276,8,3412,255,259097
117,205,52,3459,304,259039
58,116,108,3393,283,259024
36,117,106,3323,233,259014
56,188,105,3321,268,258881
49,135,116,3374,289,258954
37,82,130,3365,221,258910
-8,183,45,3392,246,258928
-53,285,-27,3385,279,258992
-64,276,9,3432,254,258898
-77,218,78,3407,310,258942
-131,209,121,3393,314,258956
-104,233,137,3385,345,259044
-118,201,120,3420,363,259068
-105,214,64,3364,251,259081
-104,276,54,3341,303,258939
-169,325,21,3385,267,258939
-116,305,125,3352,363,258983
-185,284,161,3437,266,258933
-212,305,152,3392,269,259060
-217,296,129,3396,301,259009
-220,234,112,3387,303,259030
-251,179,70,3323,237,259157
-218,271,86,3351,261,259023
-210,353,59,3372,321,258962
-210,311,83,3408,330,258905
-215,232,139,3344,325,258942
-195,281,157,3369,288,259056
-227,354,77,3354,345,259043
-227,323,51,3387,333,259001
-187,226,34,3431,186,258946
-179,239,13,3461,259,259056
-207,308,-5,3409,417,259138
-132,274,86,3363,329,258973
-141,217,155,3428,252,258923
-123,230,158,3404,217,258974
-90,275,149,3407,370,259002
-97,228,125,3352,340,258993
-107,229,105,3408,295,258968
-102,304,56,3400,213,259008
-104,315,56,3452,255,259016
-84,234,97,3453,268,258988
-99,195,146,3419,325,258932
-34,252,179,3413,251,258977
-23,254,164,3405,357,259067
17,196,152,3417,300,259117
6,197,80,3376,249,258956
-6,282,43,3339,310,258960
10,317,68,3431,324,258983
0,231,164,3429,324,258947
-26,176,192,3390,357,258916
5,246,222,3440,324,258960
-22,251,161,3397,324,258946
13,169,152,3383,293,258975
-42,122,71,3490,307,259029
-7,191,-12,3380,282,259021
-3,191,-21,3372,317,258949
-14,130,27,3375,278,258910
-19,142,123,3409,344,258997
-29,207,188,3443,300,259045
-82,170,201,3380,226,259070
-57,114,219,3466,253,259041
-65,141,161,3427,261,259034
-74,242,78,3438,318,259019
-71,242,97,3341,343,258991
-85,169,146,3291,301,258972
-107,196,175,3337,302,259015
-110,255,182,3335,318,259081
-133,224,179,3469,285,259018
-128,166,168,3447,275,258993
-159,208,119,3440,236,258921
-180,286,82,3429,290,259027
-169,259,134,3393,274,259052
-197,157,146,3404,186,258866
-191,149,158,3378,251,259018
-185,210,61,3340,305,259069
-147,187,43,3329,301,258903
-150,133,35,3436,310,258844
-165,156,28,3414,265,258968
-178,226,21,3370,266,259067
-171,184,39,3349,270,259003
-149,98,35,3383,287,258969
-156,119,34,3364,218,259054
-163,179,12,3369,229,258926
-96,171,45,3440,320,259021
-129,106,24,3402,310,258925
-106,167,-43,3363,289,258930
-85,244,-116,3397,274,259021
-65,204,-89,3425,306,258988
-50,134,-16,3395,306,259030
-49,166,35,3430,274,259071
-57,179,43,3403,327,259070
-18,126,86,3367,274,259063
-45,92,50,3432,225,259086
-37,138,31,3475,229,258992
-19,166,19,3395,277,258907
0,104,36,3377,323,259026
24,64,74,3409,346,258920
56,79,117,3371,306,258919
20,121,136,3360,220,259028
55,126,185,3323,337,259009
30,90,159,3409,277,258990
41,99,129,3424,292,258974
49,181,100,3425,277,258994
64,182,84,3362,281,259001
44,102,72,3349,314,259001
54,73,108,3322,283,258999
83,93,145,3349,298,258950
91,103,201,3341,213,259116
36,82,193,3416,231,259008
48,128,149,3419,263,258968
31,162,61,3416,272,258944
48,144,28,3386,227,258920
11,95,55,3358,230,258964
-24,116,40,3390,292,258973
-48,139,21,3367,386,258970
-23,93,39,3399,308,259029
-24,78,55,3364,285,258957
-43,161,80,3351,287,259038
-108,209,42,3332,179,259051
-50,134,95,3350,349,258989
-86,99,95,3379,313,259000
-116,144,33,3392,306,258937
-92,183,41,3349,360,259000
-137,109,64,3413,302,258951
-185,85,68,3400,262,259014
-131,150,78,3466,302,259033
-173,166,27,3419,365,259092
-157,120,1,3420,246,259056
-132,73,16,3283,207,258954
-177,98,-7,3399,247,258958
-121,80,32,3352,266,258941
-116,84,69,3374,209,258924
-174,94,37,3349,216,258930
-153,191,24,3382,268,258985
-149,165,26,3336,305,259076
-139,82,35,3410,317,259160
-120,66,81,3417,239,259022
-83,89,102,3331,284,259052
-95,70,109,3366,312,259055
-52,63,147,3425,295,259112
-50,114,98,3393,261,258989
-76,183,86,3410,310,258987
-13,169,145,3404,321,259044
-29,129,160,3410,367,259012
-30,125,161,3437,314,258940
7,114,163,3394,268,258937
17,55,144,3463,240,258944
58,62,130,3516,277,258969
91,107,117,3394,301,258997
53,136,83,3413,233,259033
100,157,148,3379,268,258915
55,131,64,3405,275,258931
73,137,48,3411,245,258934
87,98,24,3414,261,259004
95,66,61,3447,224,258950
78,92,95,3457,248,259043
83,162,145,3476,342,259032
71,210,71,3438,300,259065
98,221,20,3458,280,258925
102,189,-58,3405,281,258869
123,201,-56,3338,259,258986
73,202,-42,3302,347,258921
93,166,56,3379,327,259042
69,142,109,3376,269,259050
67,181,117,3395,253,258987
12,236,43,3392,323,258995
40,216,52,3358,365,258954
52,194,74,3410,340,258950
29,216,63,3401,308,258965
4,201,26,3348,283,259010
69,141,71,3389,304,259017
0,103,48,3425,322,259029
14,223,110,3390,351,258964
-28,306,123,3417,345,258930
-22,250,180,3430,355,259034
-56,202,148,3421,272,259088
0,238,69,3361,392,259066
-6,215,32,3391,372,258937
-4,134,115,3389,290,258982
-68,125,118,3414,271,258975
-54,202,141,3361,329,258996
-44,217,140,3388,331,258886
-37,196,100,3426,275,259015
-28,204,50,3401,303,258950
-44,217,-21,3450,333,258907
-46,176,-7,3383,337,258982
-25,135,48,3402,244,258978
-46,139,42,3437,299,259049
-17,213,31,3394,331,258957
26,232,23,3349,270,258883
28,188,22,3364,252,258982
33,210,28,3393,238,258959
62,252,18,3364,248,258967
23,175,-18,3329,304,258990
60,92,1,3359,273,259022
66,136,-13,3338,260,258995
49,274,-55,3404,305,259100
95,226,-31,3432,328,259061
75,198,-43,3441,231,258989
43,272,-100,3397,197,259001
200,259,9,3377,213,259060
81,166,-47,3443,295,258995
94,198,28,3355,298,258939
80,218,135,3332,256,258970
96,288,-16,3406,292,259077
38,241,178,3396,264,259007
94,387,10,3447,256,259051
6,286,56,3355,285,259035
-26,309,69,3394,349,259146
184,186,180,3310,289,258913
-121,263,17,3372,354,258932
96,241,94,3386,292,258980
0,251,194,3499,378,258977
-25,316,151,3472,325,259002
48,329,188,3441,300,259020
-143,325,50,3332,331,259046
55,309,114,3425,255,258952
-119,255,-32,3384,234,259041
-46,207,-8,3378,281,259026
-67,222,13,3419,278,259040
-27,267,126,3445,289,259007
-84,314,156,3407,354,258940
-103,293,150,3342,296,258975
-104,282,105,3323,373,258906
-107,289,39,3325,349,258931
-158,224,-18,3341,259,258995
-83,149,46,3385,270,258974
-169,129,45,3425,270,258979
-201,207,21,3349,255,259026
-101,224,109,3352,299,259095
-248,180,12,3390,339,259007
-181,230,71,3359,331,259020
-161,211,18,3433,271,259056
-226,169,25,3482,306,259016
-168,94,-7,3411,305,258993
-179,135,-45,3390,296,259007
-198,179,-29,3384,288,258956
-192,186,73,3412,318,258991
-250,189,94,3390,268,259005
-212,244,95,3370,338,258962
-181,224,26,3394,307,258933
-111,131,30,3414,321,258944
-110,147,41,3349,228,259024
-139,197,55,3370,220,259034
-164,248,91,3402,251,259097
-127,194,180,3415,306,259021
-137,225,212,3417,307,259077
-121,318,158,3395,200,259009
-88,284,93,3356,266,259021
-71,129,108,3329,305,258935
-88,109,116,3367,249,258858
-21,241,172,3447,239,258935
-111,224,155,3397,283,259077
-130,195,174,3363,313,259058
-45,271,126,3404,356,258858
16,393,65,3325,263,258950
-35,283,38,3412,307,258944
2,137,170,3322,310,258875
-60,120,169,3399,300,259096
-19,197,170,3357,303,258995
-65,230,87,3373,262,258804
-9,260,103,3404,273,258851
-65,314,70,3458,288,258916
-57,370,186,3335,319,258991
-49,311,223,3389,287,258954
-69,167,154,3417,232,259047
-105,189,93,3332,323,259044
-77,300,128,3445,292,258883
-79,306,239,3451,337,258927
-137,265,260,3451,336,258971
-139,297,140,3414,252,258885
-62,380,27,3401,288,258980
-56,347,5,3488,343,259031
-82,243,40,3377,333,259013
-103,161,90,3351,275,258958
-96,158,83,3373,313,258985
-60,155,74,3448,343,258980
-61,192,73,3392,288,258978
-124,251,70,3385,253,258957
-138,294,82,3403,250,258937
-166,216,43,3435,328,258997
-59,101,89,3408,296,258962
-105,24,27,3389,255,259011
-106,38,-9,3409,259,258984
-116,74,-19,3412,287,258985
-90,82,-15,3399,260,259076
-124,164,83,3348,289,259014
-107,219,155,3448,326,258948
-79,149,212,3365,268,258893
-69,7,170,3352,256,258930
-77,-12,26,3337,229,258910
-22,85,-63,3309,263,259041
-37,67,-3,3353,293,259074
-136,62,105,3397,323,259078
-109,178,209,3353,242,258953
-88,237,183,3373,351,258945
-75,110,124,3392,353,259016
-24,-3,55,3427,239,258953
-13,35,-9,3435,202,259021
-26,64,-5,3423,327,258977
-35,61,85,3382,295,258917
41,58,182,3360,262,258988
-26,152,106,3368,257,258836
9,201,31,3372,328,258926
45,166,-8,3422,362,259019
46,72,-25,3493,307,259081
107,83,70,3359,269,259186
94,143,111,3394,331,259028
113,116,135,3380,316,258964
76,126,83,3284,255,259060
56,178,23,3359,266,258993
65,262,5,3392,320,258948
122,210,74,3324,359,258914
-26,89,94,3396,298,259083
66,59,156,3378,353,258962
27,94,75,3404,326,259037
69,89,116,3318,320,258963
-7,112,90,3373,292,258925
-3,232,140,3388,269,258987
-3,307,143,3323,310,259076
16,224,173,3404,297,259089
-14,148,128,3397,278,259013
-21,164,70,3423,272,258942
-47,172,26,3386,217,258924
17,116,93,3372,298,259059
-22,124,109,3394,284,258989
-50,189,94,3427,297,258965
-66,211,69,3369,336,259041
-49,140,64,3375,308,258972
-21,85,44,3396,307,258965
-65,76,-7,3420,254,258919
-119,77,-59,3468,290,258957
-21,33,43,3382,288,259030
-144,46,-3,3425,304,259094
-93,118,43,3392,311,259071
-102,128,59,3456,292,259007
-74,45,90,3419,297,259036
-110,44,58,3454,271,259051
-68,84,9,3381,291,259164
-47,21,-29,3302,261,259048
-105,36,14,3372,246,259046
-116,69,28,3416,237,259032
-117,159,127,3418,170,259009
-152,134,159,3377,275,258955
-109,82,105,3334,302,259005
-66,59,60,3332,336,259030
6,61,48,3463,288,258960
-4,53,93,3441,311,258972
-32,81,107,3374,236,258978
-4,126,115,3390,229,258954
-40,205,32,3417,299,259034
12,212,42,3389,379,258982
38,183,98,3402,328,259018
25,104,137,3350,267,258963
20,79,124,3304,222,258987
82,87,99,3352,311,259006
83,113,42,3453,350,259062
73,167,38,3455,324,258989
43,228,66,3452,285,258993
59,242,147,3403,299,259044
51,220,161,3397,262,259089
49,250,117,3424,256,258989
64,257,94,3317,331,259012
43,181,77,3405,268,259001
37,155,41,3377,252,259026
12,239,-1,3370,320,259038
-2,327,-23,3393,315,259019
20,324,27,3386,337,259012
-16,264,24,3392,255,259039
-21,235,-3,3378,251,258929
1,197,-10,3442,248,259074
-4,117,39,3465,304,259056
-30,135,42,3404,247,258960
-21,204,85,3382,255,258960
-85,260,2,3416,303,259007
7,247,71,3441,302,259006
-32,245,44,3371,286,259028
-9,263,50,3399,310,258942
-41,236,58,3432,279,258988
6,196,69,3350,274,258984
-22,196,116,3413,300,259038
-56,214,106,3476,285,258956
-46,255,115,3338,295,259086
-61,263,157,3403,313,259027
-59,197,83,3429,250,258889
-42,186,95,3362,315,258920
-15,136,142,3361,277,258981
22,53,142,3434,265,258934
-101,71,63,3407,203,258922
-29,129,50,3508,285,258953
-15,119,42,3408,320,258928
-39,131,119,3338,311,259049
-65,181,75,3415,210,259001
-22,229,49,3384,290,259039
-25,128,-26,3443,228,259068
37,70,-55,3412,208,259001
21,194,-105,3377,271,259033
13,202,-98,3361,306,258986
-44,189,-56,3332,283,259042
36,195,83,3425,284,259040
37,264,26,3400,300,259032
49,238,78,3382,329,259045
55,172,60,3451,308,259016
109,124,67,3399,211,258977
79,157,19,3397,248,258926
92,195,13,3359,321,258986
116,228,44,3338,313,259041
99,259,55,3401,360,259086
73,269,12,3383,306,259050
157,287,89,3335,251,259015
154,273,94,3421,276,259069
104,255,76,3418,275,258998
105,282,121,3438,248,258918
43,347,2,3433,227,258947
115,352,160,3299,265,258969
35,352,58,3415,322,259008
68,368,284,3422,253,258903
-42,383,127,3431,287,258974
93,290,218,3422,283,258947
1,285,141,3458,292,258956
105,308,136,3409,211,258898
-10,367,99,3306,276,258975
-6,403,96,3342,252,259004
38,361,132,3402,271,259028
-38,345,82,3352,310,258984
26,363,90,3332,264,258864
11,381,84,3425,223,258877
-44,331,83,3435,310,258987
-97,285,45,3402,258,258996
-9,357,78,3432,269,259005
-60,404,-3,3388,338,258935
-105,394,59,3487,362,258983
-154,323,68,3482,257,258999
-99,363,48,3362,283,258951
-132,290,-76,3429,232,258992
-108,178,-78,3397,237,259010
-136,168,-71,3389,200,259052
-147,274,-65,3325,232,259005
-157,282,-11,3392,269,259015
-168,195,-36,3375,437,259147
-143,224,30,3419,323,258977
-144,264,-4,3438,350,259023
-72,187,117,3368,360,259032
-127,77,125,3351,224,259014
-132,64,120,3463,235,259010
-120,140,103,3453,261,258999
-93,116,166,3383,326,259021
-96,86,247,3431,280,259033
-170,127,242,3380,266,258966
-157,156,245,3301,287,258975
-122,51,241,3417,259,258995
-104,11,192,3426,307,258886
-125,56,112,3348,313,258928
-112,139,111,3314,296,259001
-70,72,157,3346,310,258970
-92,102,212,3377,314,258953
-76,194,213,3367,348,258950
-58,187,190,3498,389,259042
-39,77,210,3441,290,259037
-24,65,184,3426,231,258962
-27,192,141,3449,259,258879
-21,188,190,3419,398,258983
-65,125,142,3424,320,259059
-43,166,132,3403,219,259024
-17,262,67,3459,255,259003
-50,212,62,3453,360,258953
-36,150,106,3356,271,259005
-26,172,89,3358,305,259043
-37,216,31,3383,337,258949
-52,247,2,3395,286,258973
-51,217,-3,3365,301,258973
-96,258,-21,3372,215,258932
-70,325,-5,3362,314,259019
-110,292,-20,3391,363,259027
-1,250,13,3429,365,259045
-79,190,-40,3397,234,259106
-56,224,-34,3344,327,259059
-51,234,-47,3375,327,258996
-65,248,-53,3458,375,259070
-98,244,-56,3454,294,259023
-74,262,3,3439,247,258916
-110,263,47,3431,270,258933
-89,238,104,3352,352,259024
-117,215,111,3403,336,258988
-93,212,174,3383,321,259000
-108,188,175,3367,310,259017
-117,195,147,3343,303,259075
-110,198,154,3455,291,259151
-128,220,123,3456,276,259000
-114,151,168,3342,267,259023
-119,79,207,3387,291,258926
-128,91,180,3437,207,258899
-120,168,111,3304,293,258984
-166,159,57,3331,217,258953
-76,89,132,3399,227,259060
-150,80,121,3408,259,258950
-144,146,99,3338,263,258987
-95,112,128,3385,306,259030
-107,-12,70,3405,308,258936
-95,-36,43,3415,284,258897
-57,26,47,3413,283,258960
-84,24,37,3391,351,259065
-56,-22,100,3434,323,258996
-107,17,70,3390,265,259045
-76,84,66,3285,302,259061
-37,41,87,3361,298,258940
-77,-33,102,3407,286,258988
-42,15,59,3404,225,259095
-16,58,-4,3483,353,259003
22,20,47,3401,305,259053
-3,-11,76,3409,281,259077
-43,88,114,3434,290,258957
-82,200,85,3341,288,259004
-48,149,132,3303,371,259024
-8,42,127,3300,297,258954
60,-13,154,3276,247,259032
-6,36,55,3362,290,259077
46,36,39,3335,313,259104
37,-10,26,3344,368,259088
53,33,39,3322,186,258971
18,84,28,3347,194,258955
-12,57,28,3386,295,259029
18,0,26,3389,345,258985
38,57,18,3396,255,258990
25,126,1,3481,308,259012
30,56,59,3428,305,259121
-13,28,137,3375,224,259075
-16,136,110,3374,274,259021
-96,230,-38,3421,338,258980
-3,176,34,3288,346,259036
2,69,136,3419,239,258999
-67,136,137,3372,235,258924
-22,194,137,3393,311,259009
-23,100,119,3352,326,259024
-20,72,60,3376,291,258938
-2,210,8,3357,299,259065
-66,248,-39,3361,323,259222
-19,107,56,3381,308,259102
-44,20,75,3364,292,258993
-28,121,13,3335,332,259049
-26,167,1,3338,267,259019
-16,141,46,3395,269,258911
-88,157,25,3400,279,258967
-90,275,56,3415,340,258927
-120,206,61,3410,370,258917
-115,123,111,3420,340,259041
-119,133,51,3394,303,258968
-97,219,39,3328,252,258983
-123,210,10,3399,296,259071
-49,147,85,3356,310,259039
-92,152,69,3363,305,259082
-14,210,89,3391,279,259029
-12,172,86,3352,305,258972
-2,110,104,3366,302,258972
-38,131,90,3339,286,258858
-34,205,91,3341,285,258980
-46,187,97,3413,316,259013
-41,139,108,3406,256,258956
-39,150,99,3312,219,259056
1,195,92,3387,221,259076
0,135,111,3359,188,259068
-3,79,124,3364,267,258979
-1,138,107,3382,297,258967
13,217,58,3428,270,259016
29,185,75,3401,328,258997
29,122,84,3399,256,259063
11,169,92,3414,222,259086
-10,258,34,3383,290,259054
-4,204,18,3423,309,258962
57,108,54,3451,322,258936
46,86,13,3409,288,258996
60,166,-26,3407,304,259018
108,161,6,3395,241,258992
80,110,-36,3366,298,258940
63,174,-58,3399,305,258970
61,248,-70,3377,277,259057
51,193,-10,3296,310,259108
46,126,89,3356,282,259061
62,154,147,3411,277,258981
32,207,99,3480,250,258941
138,191,119,3333,349,258966
107,160,38,3413,282,258937
100,211,-7,3426,246,258903
90,280,-8,3418,346,258998
81,230,73,3387,348,258998
84,213,103,3352,260,258908
72,306,73,3349,225,258904
85,374,41,3379,251,259005
147,340,88,3402,276,258997
99,358,94,3378,294,259014
95,482,78,3393,221,259060
29,514,16,3352,244,258972
39,416,79,3337,318,258924
29,349,104,3370,235,258939
26,384,88,3367,223,258960
-60,407,40,3400,328,259004
-32,359,98,3439,317,258925
-55,326,96,3449,216,258949
-79,379,99,3404,290,258992
-110,379,105,3388,315,259014
-29,345,216,3331,231,258922
-72,367,192,3385,268,259001
-33,337,169,3409,303,258966
-42,350,149,3384,301,259025
-36,327,72,3366,257,258994
-20,312,83,3373,231,258860
-71,329,86,3426,267,258964
-51,310,118,3471,311,259016
-76,248,159,3343,284,259090
-128,178,116,3442,257,258931
-64,190,64,3357,262,259032
-13,197,86,3353,275,259072
-128,189,-25,3492,346,259096
-89,205,-9,3423,246,258997
-62,231,72,3411,277,258963
-127,238,-20,3370,327,258991
-66,232,51,3342,253,258970
-123,144,47,3435,300,259115
-48,161,10,3383,327,259036
-154,207,-55,3343,339,258889
52,214,81,3328,294,258912
-180,87,19,3476,235,259033
-40,137,134,3315,264,258973
-130,170,97,3500,214,258871
-111,146,117,3432,280,258909
-55,70,152,3407,264,259031
-123,122,130,3435,177,259017
-83,194,110,3420,290,259085
-71,121,60,3394,314,259055
-158,99,10,3352,321,259014
-127,236,-11,3342,270,259026
-79,249,51,3381,325,258979
-152,183,112,3373,290,259096
-131,180,144,3378,250,258970
-98,262,122,3365,339,259026
-91,238,113,3365,353,259005
-114,217,120,3352,308,258986
-164,327,97,3435,204,258998
-155,396,109,3396,348,258950
-156,332,141,3394,404,258973
-120,260,182,3433,272,259019
-172,298,86,3461,272,258914
-90,309,75,3460,330,259013
-134,287,48,3459,292,258977
-142,304,77,3359,339,258908
-52,313,60,3376,350,259034
-285,589,72,3376,313,258975
-103,305,233,3372,356,259021
-173,255,-2,3303,377,259125
6,403,16,3381,273,259041
-234,231,470,3417,302,259022
-386,436,-280,3554,355,258975
599,43,425,3295,293,258916
-1144,222,-748,3521,216,259072
1276,580,1045,3315,351,258972
-1548,169,-857,3807,305,259250
1270,150,1075,2849,291,258634
-1146,75,-379,3615,286,259101
578,563,94,3204,348,258947
-69,59,42,3570,437,259159
-355,123,47,3400,201,258970
79,305,-99,3400,251,258986
-99,457,2,3421,324,258911
-57,0,115,3476,335,259048
-54,108,99,3304,215,258939
45,121,193,3430,249,258985
-244,216,-118,3380,345,259067
215,-15,275,3334,243,258967
-195,78,-91,3438,296,259077
79,194,228,3421,339,258873
-183,131,-51,3516,433,259016
56,89,263,3300,274,259013
33,46,102,3424,250,259054
-151,173,-51,3406,244,258935
238,-72,173,3351,282,258934
-50,47,1,3523,262,258995
-5,49,119,3352,257,258960
34,196,-125,3499,296,259181
-67,-35,97,3350,220,258980
126,103,142,3481,191,259054
-125,76,109,3417,326,259034
19,139,190,3332,309,259058
43,-4,170,3407,242,259031
-160,51,-65,3411,315,259028
171,70,65,3391,268,258919
-114,120,-13,3468,306,258967
-83,124,6,3329,331,258898
149,159,198,3408,343,258987
-272,38,-113,3343,297,259030
187,173,217,3299,238,259045
-117,107,-54,3441,307,259090
-14,182,92,3331,373,258991
7,103,74,3450,296,258975
-112,204,17,3468,286,259052
67,194,191,3434,277,259035
-116,147,70,3480,204,258999
-20,117,197,3392,249,258913
-17,100,13,3403,289,259007
-27,70,90,3383,299,259066
62,53,63,3458,269,258957
-116,126,62,3484,216,259017
-32,215,103,3346,254,259079
-50,137,50,3391,371,258943
-90,121,179,3373,288,258983
25,41,104,3410,279,259002
-134,130,104,3398,352,258949
12,77,71,3428,323,259047
16,93,26,3459,292,259052
-103,81,18,3422,243,259095
45,183,44,3387,264,259119
-122,193,133,3430,231,259097
-18,115,137,3392,263,259063
-81,95,164,3356,240,259040
-81,39,130,3298,233,259032
69,69,121,3293,278,258927
-61,56,66,3331,290,258955
22,66,-20,3346,211,259001
12,107,81,3352,281,258971
-36,128,16,3406,313,259010
97,149,113,3371,248,259004
-103,54,60,3462,256,259042
78,15,110,3362,263,258985
-57,-15,107,3445,268,259045
32,11,50,3442,287,258923
45,25,68,3337,280,258983
-57,34,20,3377,379,258992
45,83,8,3372,324,258938
-61,96,2,3409,286,258920
36,90,-25,3374,309,259114
-2,36,-1,3398,350,259087
-10,16,20,3350,367,259045
59,11,-8,3357,352,258956
-133,72,-59,3379,276,259072
15,139,-69,3346,320,258896
-114,118,8,3336,340,258968
-32,65,119,3393,295,259019
-81,115,104,3365,249,258982
-106,88,26,3369,212,259014
111,26,46,3373,235,259049
-168,-3,-31,3532,295,259031
53,86,54,3471,300,258971
-146,126,23,3497,300,259084
-175,143,79,3432,241,259029
-19,87,82,3422,262,259148
-156,114,107,3367,282,259025
-61,108,72,3390,317,258964
-94,36,100,3418,257,258992
-75,90,110,3350,228,259021
-49,146,108,3432,225,258938
-127,168,115,3438,223,259002
-85,171,219,3329,314,259026
-261,180,156,3399,217,259015
-95,238,160,3401,317,258988
-212,138,66,3431,334,258994
-151,77,56,3394,364,258999
-94,96,23,3424,352,258980
-211,164,21,3409,258,258924
-203,182,2,3421,303,259080
-59,180,154,3310,310,259051
-214,167,61,3304,326,259068
-81,186,160,3354,347,258891
-137,210,118,3353,305,258986
-65,172,67,3367,302,259011
-96,162,30,3397,263,259118
-98,152,-15,3399,323,259057
-49,159,76,3442,276,258988
-93,155,150,3437,282,258930
-107,180,133,3393,269,258973
-116,238,88,3374,277,259065
-29,182,88,3426,318,259133
-26,161,30,3435,252,259148
-88,215,-115,3457,276,258984
73,208,-94,3416,300,258989
-52,107,-25,3395,279,258987
-52,99,85,3421,345,258986
-130,318,157,3447,286,259037
-197,338,80,3426,269,259088
-110,207,76,3408,284,259049
-32,178,40,3412,268,259084
71,181,136,3429,237,258975
-47,179,49,3419,266,258934
65,166,187,3336,239,259052
0,232,128,3426,266,259069
6,300,83,3460,332,258965
36,376,50,3353,362,258977
109,259,45,3420,333,259068
15,90,-19,3381,342,258993
108,140,-19,3317,200,258972
150,254,48,3387,245,258975
110,330,97,3469,311,259017
-37,327,50,3379,337,258947
18,379,138,3338,275,259042
24,294,148,3305,312,258966
-30,203,139,3376,303,259027
62,164,132,3330,319,258974
-50,205,67,3340,223,259055
-18,260,64,3413,230,259124
-59,251,16,3352,282,259039
-24,289,24,3381,319,259044
61,290,99,3382,275,259078
5,356,117,3415,286,259034
93,309,210,3396,357,259032
109,238,202,3390,311,258986
12,273,91,3465,339,259032
42,390,7,3388,323,258975
91,364,150,3424,329,258985
-46,316,179,3335,236,258910
-55,418,203,3276,357,259028
13,431,201,3321,354,259002
10,264,87,3434,334,259017
25,206,42,3349,219,258917
23,307,-53,3407,210,258943
9,371,-18,3494,341,258992
-17,351,62,3497,280,259021
-47,362,45,3456,209,258968
-28,460,20,3382,352,259033
-3,403,-12,3353,357,259025
-33,278,10,3423,312,258975
65,226,129,3393,272,259006
-81,288,97,3438,346,258961
9,271,111,3432,345,259003
31,263,151,3300,344,258979
-85,308,106,3467,355,259001
-74,358,96,3409,307,259008
-108,280,164,3394,329,259001
-87,164,125,3437,218,258959
-41,167,75,3391,296,258918
-29,250,17,3454,222,258966
-4,223,-38,3388,256,259007
-38,211,38,3452,316,258892
-74,214,-73,3400,259,258880
-101,315,-141,3264,293,258844
-65,378,-136,3319,328,258831
-14,277,-158,3382,354,259013
-10,162,-2,3368,268,259005
-32,199,42,3356,261,259050
-3,324,130,3322,290,259026
-123,253,67,3401,305,259047
-64,192,97,3389,324,259066
-79,337,88,3437,247,259026
-70,363,23,3419,358,259044
-54,277,161,3367,367,258963
-151,159,90,3418,317,258972
-79,193,70,3348,320,258962
-181,211,6,3400,330,259079
-90,197,88,3378,286,258955
-192,187,107,3306,288,258991
-243,312,56,3397,220,258980
-165,349,47,3414,285,259022
-70,220,133,3402,318,259086
-101,118,135,3514,273,258936
-74,217,115,3395,240,258839
-85,279,123,3418,358,258927
-70,238,155,3422,276,259012
-67,270,221,3400,361,259076
-126,323,196,3441,346,259086
-92,284,299,3395,368,258932
-64,161,258,3345,301,258948
-108,104,92,3422,172,258948
-84,197,2,3400,270,259042
-16,280,30,3415,320,259003
-99,229,90,3454,234,258929
-69,212,271,3376,280,259011
-150,298,292,3377,260,259005
-108,289,199,3371,269,259039
16,123,182,3416,343,258930
-103,112,47,3370,336,259007
55,194,-11,3387,361,258957
32,137,76,3386,398,258951
-12,54,176,3429,271,259014
-57,105,141,3376,272,259006
-71,229,105,3348,344,259016
-61,150,42,3456,338,258972
18,119,51,3378,331,258974
-47,191,-72,3400,288,258921
59,177,-32,3384,304,258999
-27,105,9,3422,295,259021
-63,123,-138,3374,194,258932
-12,284,2,3329,291,258958
-111,262,-79,3505,291,259084
15,115,91,3360,294,258917
-29,136,115,3354,301,258971
-12,159,-21,3293,245,258907
11,155,0,3342,314,259011
-6,63,103,3402,260,259035
-82,154,90,3425,288,259011
-105,234,135,3388,263,259007
-100,211,166,3367,284,259001
-67,93,150,3402,241,258954
-137,154,56,3470,272,258935
-106,167,27,3361,328,258989
-108,59,111,3394,337,259025
-229,119,80,3378,268,258965
-76,209,191,3360,290,259013
-215,169,94,3446,319,259038
-166,79,203,3382,283,258996
-176,181,190,3412,268,258918
-116,150,220,3358,239,259027
-146,47,231,3437,298,259020
-118,2,172,3456,282,259032
-134,52,-41,3378,271,259018
-64,49,69,3310,286,258932
-106,73,151,3434,305,258986
-151,123,141,3342,303,258996
-66,108,268,3334,260,259056
-179,14,82,3440,281,258968
72,108,73,3411,279,258900
-93,126,-178,3380,269,258970
42,56,-101,3319,226,259026
-59,26,-56,3434,216,259006
21,132,-4,3415,195,258978
22,211,93,3348,224,258949
-72,112,84,3383,233,258993
83,43,-16,3421,244,258993
46,93,-100,3342,276,258974
129,77,-129,3354,246,259035
175,55,7,3343,291,259003
10,69,36,3337,284,259076
105,93,130,3332,283,258947
43,110,81,3358,262,258987
206,73,12,3291,297,258992
177,37,-36,3366,262,259002
102,7,-117,3480,261,258898
280,9,-99,3405,293,259013
125,0,-96,3403,292,258997
268,12,46,3412,309,259016
190,83,3,3427,241,259055
212,136,68,3392,255,258953
85,111,71,3323,282,258907
238,-3,143,3331,227,259028
162,17,-13,3407,302,259009
188,73,23,3350,315,258960
93,52,-15,3451,280,258993
161,4,44,3430,286,259091
40,102,138,3387,292,259078
28,132,131,3335,252,258997
76,66,139,3388,229,259027
-14,1,174,3429,264,258926
93,78,156,3430,231,258965
-70,90,-19,3422,235,259007
83,-13,98,3384,237,258946
-83,-42,148,3469,283,259026
-45,97,192,3416,372,259053
-53,102,190,3410,346,259044
-154,66,258,3364,294,258965
-92,56,158,3453,258,258958
-65,19,62,3455,264,258944
-136,33,80,3404,328,258894
7,12,27,3389,231,259057
-151,86,73,3371,305,259033
-258,156,7,3334,230,259031
67,63,191,3357,217,259136
-297,23,86,3419,237,259106
-52,160,108,3393,224,258973
-114,214,-33,3363,287,258934
-200,41,-45,3338,263,258885
-3,3,-1,3307,207,258849
-50,168,1,3368,288,258913
-275,268,-52,3375,307,259061
-74,158,227,3264,280,259040
-280,160,61,3343,229,259121
-79,289,46,3373,278,258937
-41,306,-14,3441,371,259032
-167,150,-68,3432,340,259049
-32,70,-46,3419,226,258979
-151,229,-43,3370,253,258942
-109,341,-90,3392,276,259019
49,181,113,3441,333,258995
-137,91,182,3492,251,259019
-58,253,108,3393,243,259075
75,385,72,3361,365,259018
-28,190,-31,3340,375,258980
-3,118,-11,3316,254,258971
102,231,66,3350,234,258959
-65,299,-2,3363,325,259055
78,217,203,3399,250,258955
-30,167,197,3413,261,259070
-5,214,214,3388,296,258984
92,207,219,3406,355,258918
16,149,144,3391,278,258921
-5,162,28,3413,359,258786
105,294,119,3386,314,258991
-43,262,111,3384,343,259097
-3,197,323,3288,254,259024
-31,155,327,3364,299,259068
-96,226,210,3350,233,259104
-83,243,103,3347,261,259006
25,265,80,3437,344,258950
-88,238,-3,3413,310,258993
-1,219,62,3450,250,258872
-92,224,169,3402,249,258917
-155,256,164,3430,292,258985
-123,240,204,3357,285,259060
-166,227,100,3376,322,259114
-90,168,-11,3385,365,258913
-26,206,11,3353,379,258917
-122,234,-36,3411,292,259068
-188,282,72,3361,238,258947
-142,274,212,3360,248,259035
-181,163,212,3362,319,258970
-159,191,204,3341,319,258946
-140,345,101,3421,305,258966
-170,342,-23,3394,293,258939
-108,242,38,3377,287,258988
-176,215,-23,3373,274,259048
-136,299,-17,3292,260,259001
-107,294,45,3403,286,259072
-206,266,77,3393,292,259018
-112,307,180,3357,238,258963
-164,405,111,3400,309,258899
-62,352,126,3355,325,258994
-51,268,70,3360,255,259068
-96,271,79,3326,248,258957
-90,363,28,3380,292,259012
-56,306,174,3418,301,258919
-136,293,156,3485,235,258961
-40,358,242,3422,205,259015
-80,476,156,3432,356,259109
-8,320,163,3480,327,259025
-24,206,79,3392,348,258994
-22,204,-109,3375,361,258954
126,322,-9,3437,258,258996
9,383,-29,3453,285,258924
142,346,187,3370,393,258951
-23,332,115,3429,293,259052
160,280,143,3372,257,259014
71,251,-29,3453,338,259023
179,226,-29,3393,252,258929
117,274,-80,3384,227,258908
50,327,-35,3422,252,259020
147,311,108,3398,281,259050
25,227,70,3384,264,258945
-12,228,146,3332,245,258967
19,203,76,3368,320,259058
121,195,138,3384,278,258986
21,214,17,3401,340,259020
138,254,55,3388,340,258993
-2,212,-19,3422,407,258939
64,168,143,3414,277,258839
-15,117,98,3399,240,258967
30,130,207,3354,225,258932
62,182,195,3456,222,258940
33,179,124,3417,291,258993
-27,219,103,3426,277,259071
-5,167,50,3398,374,259052
-86,157,68,3337,244,258963
-109,214,109,3374,280,259062
-32,204,188,3340,328,258921
-137,211,177,3400,301,259068
-130,210,177,3302,291,258973
-56,262,76,3397,280,258940
-90,256,12,3431,307,259055
-100,218,-118,3432,241,258858
-59,250,-85,3354,284,258954
-79,238,15,3408,311,259016
-90,243,47,3319,281,259015
-68,251,210,3459,245,259056
-154,238,120,3429,253,258890
-31,268,63,3297,264,258923
-122,256,-36,3311,313,259028
-39,271,-44,3340,207,259019
-102,311,17,3379,253,259000
-92,335,100,3371,319,258972
-143,269,107,3402,337,259037
-138,260,117,3377,234,258990
-99,270,51,3410,294,258973
-48,323,3,3422,296,259007
-107,321,-119,3485,326,258911
-57,302,-133,3389,288,258958
-9,240,-96,3364,257,259007
-53,214,-79,3340,162,259163
-49,243,52,3308,226,259016
-101,300,115,3342,277,259072
6,267,202,3353,277,259034
50,174,174,3362,235,258931
-3,225,38,3358,258,258955
82,245,-27,3400,266,259035
48,144,35,3402,301,258997
30,100,182,3412,230,259079
43,223,216,3434,270,259041
-29,319,206,3343,294,259104
77,205,227,3370,309,258988
45,117,164,3413,300,259038
94,165,63,3376,269,258972
107,211,94,3379,338,259006
39,132,66,3401,296,259037
113,130,140,3368,299,259018
-20,170,122,3342,344,258980
104,159,184,3389,251,258963
63,48,241,3332,274,259012
28,6,112,3373,275,259062
66,48,124,3422,270,258923
33,130,24,3459,276,258913
6,160,11,3379,278,259018
61,78,165,3314,309,259008
-121,10,91,3326,221,259054
-32,80,174,3306,290,259011
-57,103,77,3399,292,259065
-30,34,-13,3310,242,258996
-41,59,-49,3307,236,258984
-194,144,-171,3333,298,258931
-56,131,-93,3382,304,259042
-44,44,55,3494,289,259112
-152,50,109,3407,268,258987
-166,163,62,3410,310,258943
19,93,217,3464,364,258987
-201,-11,22,3359,253,258973
82,165,47,3338,294,258995
-152,157,-129,3419,317,258945
0,30,28,3359,316,259020
-40,-56,64,3397,244,258993
-127,136,-3,3377,253,259014
-112,114,-30,3416,346,259010
-72,32,138,3391,230,259056
-74,-14,10,3369,261,259014
8,147,8,3435,287,258936
-81,155,-127,3361,311,258986
26,39,-56,3280,333,258969
-35,71,-9,3354,248,259027
-104,147,54,3363,258,259010
-13,85,122,3387,407,258975
28,18,199,3354,343,259047
-18,55,162,3366,208,259100
21,217,23,3326,309,259057
-40,265,-140,3310,361,258930
111,138,44,3350,361,259004
-38,137,-190,3469,314,259011
183,141,230,3385,328,258887
-75,131,44,3504,287,259126
173,-7,324,3351,259,258988
49,9,125,3428,285,259047
163,71,74,3307,261,258906
94,184,37,3402,270,259014
229,107,125,3416,264,258980
43,26,180,3394,262,258932
115,169,182,3348,242,258965
134,237,114,3433,331,258916
105,83,142,3411,322,258982
115,50,177,3471,221,259002
169,167,124,3370,228,258998
101,220,24,3360,258,259078
100,41,13,3388,302,259128
69,62,86,3442,225,258970
62,201,125,3458,232,258950
-68,214,97,3423,323,259054
60,64,232,3400,301,259022
-65,-7,120,3462,280,259053
66,124,94,3372,386,258954
-71,118,-33,3388,368,258977
-57,14,8,3393,274,258951
-97,12,31,3371,222,259030
-66,94,121,3391,253,259054
-184,65,49,3430,324,259000
-93,36,103,3354,222,259020
-111,43,-23,3435,302,259051
-123,117,-115,3378,359,258994
-76,133,-56,3351,364,258930
-191,89,-89,3426,281,258967
-177,144,45,3375,246,259090
-215,160,47,3456,209,259030
-150,104,108,3371,256,259091
-151,64,104,3349,357,258979
-184,139,41,3394,327,258964
-68,212,65,3387,330,259006
-200,208,29,3424,348,259006
-215,140,23,3390,280,259032
-133,180,152,3362,266,259067
-169,172,131,3385,367,259061
-193,170,88,3378,352,258938
-64,103,237,3407,245,258965
-186,155,-34,3462,270,258931
-26,232,220,3280,389,258860
-206,269,-92,3408,347,259119
-43,104,166,3397,336,258965
-210,191,68,3377,308,259037
-64,250,164,3294,335,259015
-175,282,147,3401,347,259030
-113,86,231,3409,320,258997
-107,183,228,3334,256,259088
-94,347,42,3377,290,259007
14,288,63,3442,340,259004
-113,117,-41,3466,222,258905
23,200,150,3311,151,258899
-171,348,-33,3389,290,258931
31,225,197,3342,309,259031
-113,70,96,3459,183,259053
6,203,104,3365,156,258914
-30,393,-45,3382,318,258954
23,285,22,3356,400,259032
-8,183,95,3390,337,259040
-81,298,57,3335,325,259043
-14,316,129,3323,354,259066
-50,199,108,3352,263,259031
-26,157,152,3356,257,259017
-14,287,13,3367,300,258901
-12,305,31,3397,274,258941
-44,245,19,3379,248,259072
-72,231,38,3313,190,258902
-102,365,43,3369,320,258924
-58,258,131,3382,378,258937
-142,135,235,3460,279,259007
-132,150,207,3368,210,259032
-50,294,170,3432,247,258975
-145,249,39,3340,332,258965
-44,146,94,3413,263,259046
-172,180,56,3354,228,258979
-119,278,148,3384,251,258938
-213,267,181,3374,286,258908
-133,169,270,3389,223,259034
-184,170,159,3389,251,259027
-119,238,74,3359,286,258915
-86,244,-18,3373,370,258928
-89,211,-22,3429,234,259057
-114,237,52,3470,299,258975
-134,292,109,3394,338,259005
-134,230,206,3382,350,258906
-76,136,208,3364,319,258887
-117,166,208,3347,248,258976
-94,232,60,3448,280,258884
-9,210,42,3423,379,258933
-71,226,-42,3474,291,258950
-50,259,0,3473,219,259061
-43,317,51,3437,277,259078
-39,208,109,3378,309,259052
-92,158,91,3428,270,259025
-34,193,88,3439,248,259016
12,265,46,3400,326,259009
-34,268,7,3384,298,258992
-1,289,-23,3353,231,259045
-58,347,-99,3353,297,258944
-5,391,-48,3325,303,259079
-12,312,24,3391,280,258983
22,273,174,3376,267,258990
13,301,163,3442,320,258968
53,377,60,3389,255,258925
-19,323,-147,3351,226,258957
141,193,-42,3375,316,258957
33,234,149,3429,186,259049
99,479,317,3393,287,259054
2,475,215,3440,370,258990
-70,236,-53,3446,345,258942
70,41,-187,3463,203,258884
191,232,15,3443,183,258953
165,391,279,3499,250,259074
108,239,485,3420,359,259053
-93,110,252,3376,309,259050
-1,238,-170,3323,244,258891
215,347,-139,3406,342,258941
105,154,149,3429,281,259089
41,28,536,3379,190,259057
-113,200,429,3404,261,259014
-46,365,51,3331,335,258951
100,271,-248,3350,282,258996
142,150,-115,3419,212,259066
-75,211,76,3371,199,258976
-60,227,346,3343,262,258979
-110,187,252,3413,348,258973
8,139,13,3384,256,258978
76,163,-178,3421,259,258969
-31,135,-83,3354,263,259086
-94,160,82,3405,286,258984
-101,224,160,3436,246,259055
-142,205,110,3456,299,259080
-82,82,40,3393,275,259002
-33,49,118,3395,282,258954
-87,108,4,3431,282,258866
-138,134,-96,3358,313,258967
-28,114,-128,3420,370,258949
-79,136,-205,3421,345,259020
-68,246,-47,3332,266,258982
-93,210,87,3397,364,259020
-201,119,211,3416,371,259051
-183,79,130,3367,358,259068
-41,117,-1,3339,274,258987
-13,126,-51,3383,294,258927
16,86,8,3371,357,258900
-75,170,112,3406,423,259040
-131,311,120,3357,358,259013
-84,254,136,3399,323,258946
-117,175,110,3392,288,258991
-52,155,71,3401,296,259014
-55,232,99,3400,268,258949
-122,165,101,3492,259,259006
-108,131,108,3413,312,258980
-103,148,101,3421,226,258920
-102,217,40,3406,299,258964
-88,249,150,3391,244,258945
-104,221,303,3370,288,259016
-92,151,323,3369,245,259040
-63,156,241,3374,285,259088
-72,161,32,3351,313,259066
71,144,26,3393,319,258931
1,176,-22,3413,308,258931
6,266,3,3357,320,258966
-4,281,23,3424,270,259020
52,156,98,3388,246,259062
57,80,144,3350,223,258996
49,161,132,3356,232,258906
50,125,120,3424,329,258955
63,69,61,3381,302,258961
53,81,1,3428,351,258877
-18,182,-45,3393,401,258983
-13,178,72,3538,338,258942
-13,91,173,3463,355,258901
-6,44,144,3398,284,259105
12,66,-58,3380,344,259038
133,84,-149,3425,325,258948
115,86,-227,3384,293,259008
189,109,-72,3363,315,258946
105,96,66,3395,324,259002
13,83,167,3305,281,258975
72,72,229,3434,299,259002
63,100,182,3486,266,258951
47,112,81,3405,297,258938
185,109,106,3396,329,258939
61,50,17,3415,285,258990
82,57,0,3418,297,258956
49,135,-16,3344,288,258992
31,139,26,3376,286,259004
-34,80,99,3372,335,259030
-34,88,188,3413,286,258996
-28,87,104,3397,323,258990
40,41,15,3476,278,259055
17,-1,-176,3428,292,259019
-20,104,-203,3401,257,258968
16,135,-104,3376,294,259050
13,109,107,3367,326,258950
-21,90,204,3366,275,259075
8,163,176,3401,309,258976
-16,190,48,3390,323,259037
40,152,-24,3435,299,258929
62,159,-18,3423,242,258973
12,230,-9,3444,249,259004
-63,281,11,3359,298,258938
-45,212,95,3425,321,259014
-30,144,137,3403,276,258966
-44,152,162,3436,291,259087
-89,179,113,3405,293,259022
58,101,103,3311,336,258950
12,75,-34,3391,286,258980
4,178,-164,3403,294,258991
49,296,-110,3385,263,258966
-17,222,15,3399,287,258959
18,161,223,3342,256,259002
-39,215,254,3340,291,258873
38,272,179,3377,258,258906
102,149,85,3385,325,258946
25,78,-49,3391,250,258932
87,187,-56,3464,242,258937
52,267,34,3372,282,259048
-30,185,152,3357,318,259051
-65,158,219,3394,321,259056
-109,202,131,3431,226,258988
-14,219,92,3413,253,259029
18,106,60,3397,309,259016
17,63,-6,3429,192,259054
12,156,3,3415,229,258975
-53,203,-31,3454,299,258969
36,198,124,3398,347,258911
-11,170,189,3403,353,258960
-39,158,182,3444,342,258957
11,110,144,3430,259,259009
44,93,63,3450,230,259064
8,115,-57,3466,313,259053
-31,178,-104,3412,306,258992
-62,98,-49,3462,230,259024
-122,79,121,3375,197,259020
-156,130,161,3297,194,258898
-88,155,145,3374,226,259044
-136,123,96,3403,254,259035
-138,66,17,3476,253,258910
-80,159,-31,3426,311,259012
-112,140,31,3412,311,258908
-239,63,38,3379,279,259026
-107,109,188,3398,266,259125
-284,238,179,3340,334,258985
-215,188,191,3334,362,259070
-149,146,218,3468,275,258993
-176,131,52,3422,358,258999
-187,146,-51,3422,314,258909
-150,204,-42,3342,330,258961
-209,211,-36,3432,272,258983
-240,281,129,3421,279,259054
-240,278,259,3432,206,259085
-252,245,343,3335,248,259078
-276,229,302,3307,276,259059
-217,220,167,3310,284,259028
-196,223,79,3306,306,258940
-176,232,9,3352,232,259035
-160,252,43,3406,219,258991
-121,312,143,3408,302,259075
-230,280,150,3419,283,259157
-229,211,269,3359,294,259031
-244,286,227,3346,288,259021
-19,224,203,3372,229,258998
-146,156,151,3484,268,258997
-267,283,-202,3425,220,258955
70,237,292,3303,327,258929
-319,119,-190,3575,301,259239
54,139,465,3305,246,258903
-434,349,24,3436,269,259067
133,151,246,3262,313,258976
-149,94,206,3505,385,259005
-9,189,-8,3413,241,258852
-67,411,-76,3387,406,258985
-47,267,40,3420,301,258971
-165,104,101,3386,320,258953
-62,419,223,3385,283,258977
-109,383,43,3451,414,259070
11,194,187,3364,408,259098
48,131,156,3491,246,259016
-33,302,-118,3423,292,259016
29,306,-21,3376,422,258964
-25,110,-1,3443,286,258868
25,224,105,3370,254,258952
-62,375,84,3365,358,259028
-98,316,134,3359,389,259024
8,148,243,3308,236,258962
-42,223,95,3357,165,258963
-41,278,-42,3335,280,258979
28,245,-6,3378,346,259070
-38,137,14,3334,356,258940
-33,199,130,3307,322,258907
-114,284,195,3303,337,258976
-110,272,267,3374,335,259020
-7,248,271,3405,298,258979
-100,219,56,3446,323,258976
-35,298,-30,3350,239,258953
-37,322,-149,3406,327,259012
-67,242,-115,3341,312,258985
-4,259,25,3314,293,258958
-60,325,129,3380,305,259000
-74,358,226,3377,310,258997
-37,279,251,3358,281,259031
-23,237,130,3354,230,258973
36,294,-62,3426,323,259083
-37,321,-189,3476,223,259036
-11,235,-81,3441,293,259074
-90,217,20,3393,297,258955
-117,290,113,3358,235,258924
-16,289,188,3415,274,258955
-6,172,171,3451,320,258996
-1,192,69,3409,246,259024
19,288,-45,3455,312,259044
70,276,11,3395,358,258959
59,128,74,3428,294,259077
-66,170,104,3438,283,258928
-37,268,133,3378,313,259009
38,209,191,3391,279,259043
18,70,207,3397,234,259051
68,85,146,3365,198,259059
88,161,58,3362,269,259062
100,86,-42,3332,304,259070
119,47,-47,3378,325,258977
134,126,11,3400,319,258907
42,221,32,3388,311,259033
56,141,218,3276,287,259102
55,110,198,3338,287,259051
51,156,86,3405,293,259004
79,217,-84,3426,322,258973
98,150,-104,3420,310,258994
72,84,-75,3361,324,258940
66,99,68,3335,223,258963
-37,154,100,3379,261,258964
30,153,169,3362,244,259006
17,110,92,3364,298,259027
-7,87,8,3398,237,258934
31,176,-44,3475,239,258968
-18,117,-64,3442,350,258943
-28,53,1,3400,273,259009
-110,81,25,3368,286,259007
-66,164,123,3316,314,259026
-4,121,246,3402,270,259009
-103,112,213,3385,329,258977
-5,157,130,3385,301,258900
-121,227,-29,3380,255,259001
-50,175,-21,3441,274,258980
-97,157,-2,3493,245,258974
-154,212,110,3422,237,258944
-208,224,172,3370,269,258956
-117,196,292,3410,336,258982
-142,207,183,3398,358,258972
-133,269,53,3403,279,258853
-46,253,-48,3394,318,258961
-73,208,-105,3406,322,258984
-151,216,-121,3450,413,258984
-121,250,15,3368,320,259001
-167,178,139,3389,286,259093
-171,119,196,3299,300,259105
-150,209,193,3347,293,258995
-141,258,119,3389,361,258930
-63,160,82,3401,314,258996
-82,101,32,3388,222,259072
-96,168,-33,3374,262,259097
-73,197,46,3443,286,258991
-61,83,196,3375,317,258957
-31,10,298,3340,252,258975
-114,151,227,3347,237,259042
48,229,119,3396,346,258940
69,110,24,3436,335,258847
60,14,-71,3460,243,258887
95,121,-133,3364,248,258926
84,217,-61,3398,284,258979
118,124,87,3378,318,259142
45,84,180,3336,254,258986
40,159,124,3382,287,258998
172,188,118,3370,347,259055
103,153,-1,3459,390,259006
101,130,-132,3392,325,258855
128,117,-60,3319,314,258980
43,106,-75,3381,334,258988
113,76,70,3349,320,258988
37,61,108,3395,304,259114
45,25,150,3327,242,259027
117,104,110,3438,276,259008
107,123,-13,3433,244,258929
122,77,-52,3432,334,258911
100,22,9,3329,314,258958
66,95,47,3335,211,259088
53,163,102,3332,281,259121
82,118,189,3348,277,259213
-8,106,188,3374,291,258940
107,219,176,3420,275,259041
46,208,6,3407,404,259002
62,119,-58,3384,221,258887
60,33,-53,3455,271,259137
30,86,-2,3374,272,259023
37,140,191,3332,316,259004
-50,104,276,3366,320,258975
-37,178,260,3369,263,259000
24,276,97,3414,328,258920
-10,170,-49,3361,303,258970
29,97,-151,3381,212,258896
30,119,-117,3490,248,258967
-46,145,-105,3432,240,259038
-8,71,45,3374,306,258950
-126,73,97,3483,331,258954
-49,134,140,3429,315,258967
-58,147,87,3474,299,259090
-95,92,-29,3373,252,258954
-38,128,-131,3392,242,259013
-68,212,-142,3369,329,259080
-81,170,-12,3372,259,259047
-92,76,117,3425,283,258912
-101,69,187,3361,243,258952
-28,127,139,3394,264,258980
30,127,41,3523,287,258972
76,76,-45,3408,227,258919
63,130,-139,3423,242,258887
97,193,-129,3430,210,259008
36,182,-56,3436,272,259015
78,61,128,3418,352,259053
12,44,195,3395,280,259112
48,163,248,3356,332,259009
27,192,117,3388,346,258960
93,156,120,3369,289,258991
41,158,-37,3368,360,258990
101,216,-16,3376,288,258933
-20,209,-44,3347,274,259015
93,170,89,3347,285,258911
1,158,127,3357,223,258983
84,265,219,3342,287,259031
41,243,135,3436,334,258922
16,209,112,3377,295,258952
47,188,72,3427,329,258989
15,230,60,3440,276,258992
13,230,168,3411,246,259010
29,163,261,3391,259,259058
-67,139,284,3309,292,258898
-37,279,197,3331,252,259033
-28,283,125,3355,345,259068
-30,196,77,3396,353,259040
-110,179,10,3336,231,258978
-89,226,-7,3311,246,258939
-108,181,30,3385,302,258982
-151,86,78,3410,283,258943
-169,141,103,3474,305,258935
-141,232,126,3390,324,258923
-221,245,94,3346,341,258898
-129,177,91,3446,291,258917
-210,191,-69,3453,237,259008
-164,231,-72,3322,285,258967
-217,219,-24,3370,329,258959
-236,138,125,3431,316,258834
-250,160,268,3413,259,258960
-280,228,278,3392,265,258897
-240,228,186,3373,264,258964
-243,182,70,3368,280,259010
-212,224,-28,3422,253,259009
-246,313,-81,3372,292,258950
-249,251,52,3348,324,258936
-305,144,154,3359,344,258968
-294,163,261,3472,308,258945
-319,311,197,3425,294,259018
-271,271,133,3414,342,259057
-205,225,66,3402,306,258962
-143,269,-7,3462,268,259001
-191,371,-81,3373,296,259018
-152,327,68,3353,293,258994
-161,214,203,3349,262,258997
-191,208,274,3365,284,259031
-155,345,243,3350,214,259047
-144,346,223,3362,316,259013
-130,274,139,3338,237,258988
-191,310,4,3372,280,258844
-99,400,-42,3387,300,258911
-125,309,12,3455,334,259056
-94,227,150,3424,296,259034
-122,252,211,3389,211,259022
-112,336,238,3405,280,258989
-91,327,186,3377,262,258975
-86,329,131,3398,252,258951
-101,367,81,3411,356,258944
-78,364,90,3432,337,258983
-76,266,169,3433,291,258958
-163,253,173,3375,253,258967
-29,239,223,3372,295,259062
-66,220,188,3485,326,259012
-178,265,83,3411,246,258991
-21,283,23,3357,314,258870
-78,258,86,3359,300,258997
-230,230,-91,3375,230,259056
134,163,158,3333,286,258876
-330,179,152,3454,304,258984
-178,311,257,3356,292,258973
141,69,455,3373,385,259064
-385,-138,159,3400,254,259108
-143,187,-89,3332,144,258928
252,391,-17,3430,244,259083
-304,98,-214,3440,354,259012
-183,6,100,3229,213,258857
-1,92,349,3336,201,258998
17,39,354,3357,286,259053
-322,159,128,3362,252,258906
-116,250,-59,3325,312,258926
-28,190,-84,3403,365,258997
-37,167,-18,3382,297,258992
-72,263,-53,3379,346,258928
-95,227,-12,3383,360,258913
53,10,230,3401,303,258984
-47,110,202,3481,281,258898
-40,467,72,3395,261,258955
9,330,26,3333,308,258970
-46,-51,132,3344,287,258999
-57,161,-33,3367,172,258887
61,582,-138,3318,292,258946
34,310,9,3396,389,259084
-61,-55,187,3375,161,259043
22,210,211,3337,241,258938
65,451,83,3381,393,259030
63,253,72,3333,350,259102
84,168,-2,3347,218,258988
197,296,-72,3379,179,258922
-53,472,-180,3429,271,258959
161,319,72,3406,271,258924
198,128,266,3507,220,259042
-43,136,161,3396,241,259142
55,388,135,3322,292,259092
273,261,142,3414,300,258939
189,92,72,3437,272,258981
26,359,-89,3424,185,258985
191,536,-133,3454,350,258956
150,211,15,3354,397,258917
87,-49,165,3446,235,258949
147,309,105,3390,207,258979
149,420,97,3352,298,259069
52,123,42,3408,374,258996
114,8,54,3348,206,258987
64,352,-168,3366,231,258917
204,367,-83,3381,332,258911
120,-19,74,3390,278,258873
49,-50,177,3327,174,258888
56,277,76,3356,323,258969
11,270,33,3392,381,259024
76,5,77,3409,284,258918
90,74,35,3416,264,259002
-95,286,-164,3390,377,259006
22,211,-4,3428,374,259092
-34,7,26,3408,262,258962
-83,-6,98,3328,264,258891
-99,101,109,3392,256,258971
13,21,176,3325,209,258889
-5,-36,127,3420,230,258871
-70,125,-43,3410,292,258840
-31,229,-170,3411,348,258986
-26,63,-83,3387,379,258979
-69,-58,59,3363,248,258892
-38,48,174,3411,310,258962
-79,78,226,3435,365,258997
22,-55,307,3415,374,258988
-3,-35,143,3373,276,259009
-21,88,-125,3402,237,258966
-33,141,-193,3384,279,259010
33,37,-63,3385,247,258937
14,41,59,3459,214,258956
-3,143,126,3427,334,259008
-63,137,141,3437,288,258954
-21,50,178,3392,332,259027
0,87,125,3413,306,259101
4,211,-5,3406,244,259014
-22,257,-67,3332,334,259034
48,181,-7,3381,252,259078
30,91,28,3417,255,258950
29,152,81,3377,243,258893
-21,208,137,3344,285,258991
25,120,212,3430,313,259130
-31,64,117,3402,229,258996
56,199,49,3361,246,259007
-19,296,-160,3373,359,258885
115,206,-74,3375,308,258997
42,136,-58,3453,195,259057
47,212,3,3401,214,258986
14,212,90,3356,314,259020
76,104,252,3396,285,259071
10,89,156,3494,190,259017
55,283,29,3389,259,258977
85,296,-94,3486,316,258973
93,159,-65,3411,255,258864
-13,139,-40,3425,197,258909
18,251,56,3381,309,258985
-22,188,150,3385,321,259041
-10,81,242,3352,285,259031
-10,118,172,3341,293,259012
16,211,87,3341,301,259029
-32,200,28,3332,305,259050
26,128,53,3438,311,258992
-59,98,89,3375,373,258952
-81,50,168,3406,226,258981
-62,18,224,3461,255,258998
-43,31,268,3367,306,258989
-104,7,115,3372,274,259149
-90,42,38,3306,260,259081
-103,48,-76,3430,312,258939
-97,29,-96,3401,271,258975
-86,22,-19,3467,268,259016
-99,54,25,3359,238,259068
-94,21,148,3350,258,258992
-119,30,98,3347,292,259059
-63,34,79,3414,310,259022
-110,78,-89,3379,278,258994
-58,83,-100,3404,258,259105
-47,31,-104,3431,229,258988
-110,-6,-11,3359,154,258965
-75,42,124,3372,249,258921
-57,34,213,3375,341,258928
-67,24,204,3371,335,258998
-65,38,99,3370,385,258920
-44,109,-19,3375,340,258946
-47,159,-81,3427,325,258970
-9,141,-35,3415,300,258922
-74,103,37,3388,278,259013
-51,85,130,3361,226,259003
44,110,246,3378,306,259011
-15,112,192,3368,292,259014
51,141,196,3288,311,259020
14,233,104,3364,322,258976
95,222,70,3412,345,258855
40,186,19,3396,329,258925
75,184,67,3372,259,258950
42,233,104,3417,357,259097
54,234,201,3378,355,259040
60,206,185,3334,284,259003
108,251,186,3386,263,259010
47,295,0,3448,311,259116
100,296,-63,3383,309,259070
52,347,-160,3408,348,258977
91,382,-75,3435,343,258992
20,354,26,3458,293,259001
8,265,189,3417,300,259005
-45,291,159,3369,299,258978
-27,348,17,3388,273,259018
-1,367,-76,3346,252,258944
-41,351,-115,3375,161,259003
-37,363,-52,3423,310,259073
-93,383,24,3401,273,259000
-98,363,99,3437,258,259066
-66,290,146,3477,299,259060
-143,241,164,3486,260,259087
-108,210,139,3408,322,259040
-114,217,78,3401,276,258977
-138,208,5,3363,276,259009
-173,188,-11,3473,256,258965
-133,164,132,3398,277,259019
-193,155,234,3326,321,259071
-150,148,365,3325,228,259197
-228,104,289,3387,296,259034
-160,129,227,3374,289,258960
-158,176,58,3351,292,259010
-174,207,-8,3302,300,259108
-231,173,24,3351,247,258943
-195,153,141,3399,225,258960
-270,141,195,3405,235,259015
-241,171,241,3373,319,259006
-198,149,284,3390,267,258961
-245,148,181,3417,339,259002
-199,181,108,3345,338,258972
-150,211,24,3363,277,259004
-214,143,30,3394,237,258995
-226,169,86,3388,187,258977
-231,204,177,3374,246,258937
-219,148,215,3354,268,258977
-222,73,243,3336,289,258983
-141,102,200,3429,255,259050
-145,173,27,3374,324,258974
-107,216,-54,3376,300,259112
-170,191,-107,3414,221,258982
-116,217,28,3423,264,258896
-190,226,143,3391,289,259124
-191,231,239,3361,294,259118
-190,231,292,3334,229,258953
-110,270,231,3375,227,258881
-158,309,65,3375,291,259004
-129,366,-55,3306,307,258936
-126,309,-72,3389,316,259008
-151,267,-63,3338,253,258993
-102,247,94,3310,259,259018
-116,283,144,3362,276,259024
-74,275,239,3361,310,258979
-111,326,145,3333,275,259035
-64,356,79,3406,349,258910
-77,398,-9,3452,348,258976
-104,354,6,3460,264,258930
-98,331,110,3408,242,258870
-159,324,221,3409,235,259005
-144,285,271,3407,269,259160
-148,236,203,3395,301,259129
-83,209,173,3389,318,259104
-90,231,8,3426,341,258992
-80,272,2,3348,371,258985
-102,272,-36,3358,283,259092
-122,254,48,3356,345,259069
-152,252,80,3421,239,259054
-103,230,184,3377,300,259014
-109,201,245,3367,324,259045
-83,183,199,3305,309,258991
14,225,167,3370,290,258884
-95,242,70,3388,334,259014
-13,243,101,3397,306,258978
-90,241,95,3371,323,259057
-42,219,222,3459,333,259006
-73,164,256,3477,321,259068
-79,108,253,3402,298,259030
-32,122,136,3365,277,258961
-48,96,-20,3413,281,259023
-21,95,-133,3410,244,259051
9,107,-161,3386,320,258896
-39,109,-98,3419,332,258944
2,115,17,3378,286,258961
19,78,108,3398,268,259037
60,104,114,3367,294,259084
87,114,9,3373,257,259087
142,99,-81,3398,244,259082
91,126,-144,3399,278,259068
118,143,-146,3361,252,259041
86,153,-67,3356,273,258938
101,113,88,3399,279,258943
125,55,150,3439,301,258995
110,119,234,3329,289,259034
107,124,106,3347,281,259056
179,170,69,3416,253,258969
74,198,-65,3448,273,259014
158,262,-78,3415,246,258905
42,243,-44,3458,279,258921
78,260,87,3422,265,258910
76,267,168,3332,280,258971
88,290,200,3414,223,258976
153,252,166,3387,302,258900
151,262,70,3494,326,259070
155,325,-40,3452,314,258988
151,358,-102,3406,267,259014
94,325,-78,3434,243,258998
141,305,31,3394,279,258933
35,277,81,3347,350,259080
78,267,123,3356,356,258937
107,244,109,3464,339,258939
146,233,34,3372,247,258989
74,242,-79,3394,236,258919
106,291,-69,3387,268,258881
90,244,-26,3374,263,258985
60,219,86,3415,283,258935
60,231,158,3438,302,258897
64,282,170,3394,273,259068
60,216,114,3405,344,259112
85,141,31,3438,269,259081
85,203,-41,3401,194,258982
49,254,-118,3415,301,258969
67,156,-44,3437,313,258974
-26,129,61,3409,245,259001
4,176,81,3352,217,259089
38,224,84,3293,250,259088
27,116,38,3337,307,259034
32,27,-32,3366,281,259082
28,99,-99,3393,215,259125
7,149,-122,3447,351,259029
16,60,-15,3361,293,258988
-33,10,77,3364,283,258936
-34,76,180,3388,305,259098
2,92,221,3421,276,259084
14,13,216,3378,346,259040
31,-26,116,3347,325,259103
61,74,2,3386,250,258987
32,97,-38,3370,283,258956
59,27,90,3367,268,258993
-26,8,199,3392,331,259015
-25,107,253,3360,318,259000
-18,130,220,3399,331,259011
12,60,154,3353,363,259019
58,109,60,3399,270,258887
10,219,-58,3411,334,259003
-90,222,-130,3329,353,258937
3,153,23,3280,338,258970
-50,151,96,3428,264,259028
-49,206,166,3353,244,258934
-69,200,198,3374,281,258965
-3,120,224,3427,260,258991
-62,116,78,3417,324,258979
5,254,1,3340,291,258932
-16,271,-84,3344,253,258946
-45,154,51,3413,294,258949
-84,151,140,3428,313,259017
-81,296,205,3384,289,259093
-95,339,177,3406,236,259146
-10,210,174,3362,310,258960
-100,186,57,3410,234,258905
-43,296,-52,3322,253,258996
-88,292,-127,3427,312,258944
-82,186,-31,3360,314,259035
-132,132,19,3420,228,259055
-104,218,141,3364,311,258971
-189,199,94,3304,282,259146
-88,94,156,3386,297,259018
-141,74,30,3449,263,259014
-137,171,-91,3437,404,258952
-131,195,-99,3379,278,259025
-136,107,8,3386,293,259043
-196,98,115,3406,267,259072
-162,177,176,3420,268,258877
-172,159,183,3451,266,259041
-89,96,156,3407,249,258957
-79,77,81,3383,234,258970
-99,147,-41,3368,288,258994
-93,152,-48,3369,288,259020
-52,90,60,3353,284,259012
-113,55,155,3398,253,258975
-76,106,258,3389,335,259120
-81,126,212,3411,339,259083
-23,63,156,3353,248,258982
-63,56,-7,3441,259,258994
-14,96,-76,3441,292,258949
-50,76,-118,3372,312,258994
-17,19,33,3372,210,258850
-83,34,91,3342,246,258976
-52,106,181,3334,208,258986
-37,94,213,3333,348,258941
-14,63,156,3367,312,259007
-1,114,36,3401,293,259010
29,140,-67,3416,331,259048
1,68,-78,3489,307,259025
54,60,13,3427,323,259104
-11,154,101,3420,272,259058
-25,221,158,3369,386,258987
44,170,280,3331,326,259031
50,149,241,3383,336,259105
49,184,107,3405,298,258994
46,239,-18,3404,266,258976
27,156,-92,3392,252,259098
21,126,-21,3336,208,258902
15,154,103,3375,292,258963
-11,182,176,3315,248,258915
12,168,257,3421,299,259020
-15,142,144,3416,221,259072
35,201,36,3385,192,258944
57,258,-30,3401,206,258941
12,214,-42,3367,204,259023
-12,166,46,3361,243,258942
-38,169,164,3357,233,258943
-59,222,208,3452,304,259072
-41,221,200,3363,277,259030
-36,180,159,3283,320,259011
-74,217,39,3443,281,259075
-54,261,-26,3409,282,258951
-46,243,8,3389,253,258939
-106,188,5,3382,254,258990
-112,265,90,3332,347,258972
-149,292,107,3405,358,258984
-75,231,208,3383,282,258956
-134,183,146,3334,267,259114
-79,214,55,3293,285,258917
-120,241,-86,3405,370,258923
-41,148,-62,3430,374,258893
-124,134,-93,3429,355,259007
-81,203,52,3378,240,259035
-141,227,88,3410,256,259084
-91,174,196,3393,361,259107
-144,173,97,3424,327,258975
-37,260,49,3397,292,259036
-136,297,-76,3453,301,258985
-50,210,72,3395,241,258950
-150,141,119,3414,227,259025
-132,192,234,3405,288,259001
-158,209,254,3327,300,259025
-115,137,260,3321,346,259082
-126,107,209,3345,268,258988
-112,158,88,3441,252,258997
-72,165,56,3408,342,259023
-100,104,5,3426,343,259012
-91,66,62,3361,309,259046
-81,120,97,3288,254,259015
-117,142,165,3330,280,259000
-59,134,245,3401,274,259007
-83,135,184,3451,301,258963
-88,213,45,3366,276,258965
-27,214,-40,3348,372,258954
-45,133,-74,3348,329,259036
-81,150,-12,3362,320,259000
-86,230,54,3406,313,259020
-144,270,187,3405,315,259018
-126,216,260,3359,240,259045
-148,252,222,3376,194,258989
-167,315,110,3354,219,259001
-182,255,14,3324,326,259058
-104,196,33,3386,324,259045
-176,201,42,3479,232,259017
-154,264,180,3440,323,258929
-184,239,264,3429,304,258939
-170,253,301,3439,272,259041
-114,262,238,3340,246,258974
-149,291,99,3424,266,258875
-161,223,7,3451,328,258903
-106,187,-12,3399,351,259013
-121,202,46,3368,273,258921
-126,267,110,3369,281,258959
-107,210,221,3420,308,258987
-151,221,245,3416,277,259031
-137,310,167,3407,245,258926
-96,386,56,3429,294,258897
-116,320,-39,3346,397,258852
-83,206,-53,3374,314,258899
-159,236,-44,3430,239,258984
-144,285,22,3357,258,258981
-125,263,135,3373,263,258963
-103,204,206,3471,285,258999
-133,245,126,3405,233,259054
-106,324,11,3414,188,259009
-79,309,-25,3343,307,259015
-84,220,-48,3402,355,259035
-84,217,17,3426,346,259015
-118,234,73,3398,262,259155
-65,176,219,3372,295,259016
-133,172,199,3439,317,258963
-74,204,140,3390,266,258995
-66,227,-30,3396,305,258914
-7,164,-91,3411,202,258820
-23,126,-176,3317,287,258941
56,124,-28,3300,380,258975
-4,154,23,3404,320,259053
21,122,176,3330,273,258989
1,122,207,3322,279,259021
50,125,208,3300,300,258966
27,183,102,3396,346,259033
96,167,25,3349,316,258971
78,94,-22,3371,232,259049
81,104,26,3379,215,258918
91,187,137,3432,228,258992
40,163,224,3332,281,258983
44,116,348,3324,301,258981
28,190,233,3418,255,259048
64,290,39,3298,301,259067
107,237,-54,3335,300,259056
14,131,-85,3363,250,258914
63,184,5,3361,296,258942
77,258,88,3405,323,259032
51,225,153,3366,325,258991
69,206,168,3338,320,259006
82,276,80,3391,374,258952
85,294,-20,3386,387,258979
124,209,-58,3437,293,258967
95,138,-109,3469,276,258991
140,155,-78,3426,305,258973
138,162,-2,3411,242,258906
142,139,94,3339,327,259031
96,180,148,3354,294,259022
145,209,90,3357,260,258965
124,197,-13,3296,348,258997
127,217,-102,3363,319,259021
118,208,-163,3404,313,258927
112,207,-83,3354,314,258977
69,186,4,3338,287,259107
114,218,119,3334,273,259016
47,251,153,3368,273,259021
53,271,144,3419,253,259016
64,262,66,3449,329,258983
70,270,-55,3398,308,259017
75,210,-82,3422,333,258972
89,141,-1,3385,276,259046
90,121,106,3392,257,259038
112,186,154,3366,288,259006
56,176,125,3430,371,259075
80,190,87,3398,284,259068
93,206,7,3391,263,258818
98,189,-104,3389,318,258889
101,123,-75,3519,265,258963
89,67,-36,3434,279,258943
144,47,99,3379,303,259007
80,77,141,3468,359,259053
103,128,208,3439,364,258963
116,191,188,3345,322,259053
80,189,106,3342,309,258978
51,183,-59,3384,324,258928
71,144,-101,3411,315,258998
76,171,-101,3328,353,259021
62,132,25,3390,310,259067
23,105,154,3390,309,259168
-7,133,242,3325,248,258987
-1,241,207,3318,296,258935
40,252,63,3343,288,259047
-7,188,-76,3434,305,259009
10,145,-140,3394,282,258954
25,167,-63,3399,314,258965
55,139,90,3468,299,258969
-67,119,223,3425,283,259061
-34,119,276,3441,300,258938
-39,160,180,3390,343,258882
31,152,68,3398,343,258872
-9,134,-99,3452,262,259024
-4,115,-173,3394,259,258934
12,76,-113,3459,262,258959
-41,51,34,3452,290,259019
9,38,155,3340,292,258993
-54,94,187,3409,264,259051
-68,143,154,3369,315,259134
-46,150,72,3395,321,259111
-63,144,-60,3440,318,258949
-87,141,-138,3399,341,258942
-50,128,-88,3313,305,258915
-33,85,22,3373,280,258962
-88,84,125,3399,295,259049
-62,157,248,3368,304,259104
-153,209,161,3468,334,259015
-107,202,114,3448,322,259062
-150,193,-19,3430,262,259095
-103,206,-39,3397,352,259051
-203,218,-33,3429,328,259045
-128,186,150,3435,308,259047
-197,180,210,3426,243,258932
-155,244,281,3388,191,259047
-163,256,227,3440,282,259083
-97,228,149,3368,343,259100
-181,256,22,3334,396,258995
-124,274,-24,3314,304,258990
-121,209,5,3357,288,258914
-88,164,189,3363,253,258927
-160,148,237,3342,230,259032
-161,243,272,3335,280,259025
-150,248,231,3426,302,259051
-147,224,168,3418,240,258920
-174,207,16,3334,226,258917
-189,243,-102,3361,280,258905
-115,196,-54,3420,277,258985
-112,123,53,3428,240,259015
-142,145,221,3383,211,258991
-163,226,293,3410,276,258995
-166,204,267,3317,453,259043
-141,148,140,3407,351,258942
-142,150,-29,3436,322,259041
-68,233,-120,3397,340,258955
-105,150,-97,3352,328,258880
-82,75,47,3394,259,258934
-51,91,183,3329,279,258985
-71,204,203,3354,367,258940
-114,173,164,3304,306,259069
-62,147,115,3343,245,259069
-98,152,-17,3450,310,258990
-88,178,-100,3423,249,259009
-109,112,-43,3337,339,259155
-39,36,105,3362,364,259076
-83,68,220,3357,218,259029
-100,145,278,3345,287,258997
-49,165,292,3360,327,258979
-81,135,195,3442,359,258929
-58,164,36,3413,342,259035
-95,179,-47,3386,273,258949
-85,110,-54,3314,306,258982
-73,22,80,3397,281,259034
-116,52,199,3407,260,258931
-125,158,226,3358,300,258917
-59,157,288,3424,363,258958
-117,110,156,3387,309,259043
-91,182,39,3328,276,259028
-80,247,-38,3415,287,259007
-90,179,13,3427,280,259021
-91,104,149,3463,259,259023
-126,156,227,3484,228,258967
-121,227,249,3396,327,259042
-116,210,260,3445,401,259103
-133,206,241,3462,295,258924
-136,295,127,3449,278,259022
-117,291,13,3399,325,259021
-119,177,-9,3414,298,259076
-126,144,-7,3391,283,259058
-78,234,111,3403,262,259093
-156,219,157,3483,304,259000
-118,160,260,3363,288,258896
-192,176,130,3380,241,258917
-138,248,-14,3313,320,258893
-194,251,-201,3328,313,258893
-79,139,-95,3335,253,258944
-117,82,3,3439,259,259028
-140,117,148,3369,272,258993
-143,176,158,3390,317,258956
-59,136,199,3390,239,259043
-124,119,99,3383,255,258990
-100,259,-22,3379,285,258899
-79,289,-84,3420,314,258978
-89,161,-94,3346,365,259026
-25,122,50,3388,317,258998
-73,223,87,3434,304,258974
-62,241,145,3374,315,258987
-48,171,186,3380,290,259000
-39,195,112,3418,280,258979
-30,291,-29,3361,318,258940
-34,248,-53,3343,294,258947
14,150,18,3344,249,258978
-10,149,65,3408,267,258975
-32,250,165,3471,328,258979
-68,210,191,3440,255,258993
33,147,294,3464,256,259030
-79,225,136,3390,320,258980
-3,275,75,3336,388,258975
-55,197,-9,3391,335,259038
2,69,52,3416,332,258968
-10,114,77,3403,314,259024
-6,204,136,3348,297,259028
27,130,228,3424,242,259074
-39,93,217,3399,293,259009
0,160,157,3360,250,258953
-7,273,12,3408,275,259013
12,202,-40,3403,265,258915
28,127,-36,3340,351,259002
38,150,51,3371,270,259079
55,239,140,3383,351,258986
22,244,229,3424,322,258995
17,216,201,3350,294,258960
-36,257,95,3362,246,259065
-37,308,-38,3344,243,258945
-7,273,-62,3396,184,258885
-54,178,-42,3397,285,258974
-54,175,-13,3387,255,258962
4,195,94,3391,315,259060
-21,176,137,3328,251,259083
38,214,200,3452,249,259102
4,268,142,3377,308,258971
-48,289,15,3308,320,259030
23,226,-26,3371,269,259041
-17,175,-50,3482,322,258945
65,183,90,3441,274,259127
-61,183,123,3384,214,259109
-21,185,230,3364,280,258998
-43,173,143,3369,326,259023
49,212,111,3333,320,258940
-30,256,-108,3363,269,258974
56,269,-110,3385,233,258907
-3,227,-118,3389,282,259029
-11,215,-2,3349,214,258992
-6,232,114,3442,162,258974
16,213,224,3368,331,259061
-79,183,167,3345,334,259095
1,243,125,3410,322,258997
5,293,6,3439,276,259064
18,284,-45,3460,344,258975
13,255,-38,3377,316,258950
15,260,24,3356,377,259017
32,253,123,3474,311,259061
-4,213,163,3505,303,259112
-12,227,174,3345,333,259024
-38,267,91,3380,331,259029
-16,249,-11,3403,313,259061
-40,192,-107,3372,325,258915
-4,119,-133,3390,320,258950
54,126,-35,3356,225,258939
