Vx,Vy,Vz,Ax,Ay,Az
-63,43,-73,375,-814,258579
-99,-38,91,434,-883,258698
-210,-88,-136,445,-808,258711
-40,155,227,343,-797,258654
-215,-37,55,395,-742,258806
-42,-12,57,339,-764,258859
72,146,287,394,-771,258800
-172,-43,-229,358,-779,258769
28,116,40,305,-812,258755
-25,-11,92,344,-867,258793
-134,-43,-42,322,-761,258691
-34,153,112,328,-755,258753
-87,-17,57,368,-754,258830
-68,3,68,403,-762,258756
47,97,297,380,-836,258718
-57,-58,-12,351,-784,258713
-92,14,-47,300,-844,258793
-9,-21,-68,386,-827,258769
78,9,43,385,-740,258801
-198,22,98,353,-742,258807
-75,-37,96,352,-821,258792
38,74,196,412,-819,258752
-41,45,15,385,-768,258714
-23,-41,-32,396,-768,258738
-29,-38,-35,372,-779,258750
-115,-72,-16,346,-814,258619
-5,14,106,357,-768,258626
-104,15,59,394,-845,258824
-74,-61,128,370,-748,258728
-52,36,68,399,-741,258733
-21,86,-10,417,-711,258666
-19,62,-3,330,-730,258710
40,-12,-19,388,-766,258701
-113,3,-40,401,-820,258676
-56,81,-63,380,-796,258635
-55,24,-68,360,-763,258743
-11,-32,136,355,-811,258732
-80,-61,83,368,-861,258676
23,115,19,352,-814,258712
16,130,49,357,-728,258655
-23,-55,-196,364,-738,258747
-33,24,9,280,-803,258630
-57,26,-42,428,-770,258716
-21,88,52,391,-741,258755
-155,24,137,290,-745,258733
27,-25,87,398,-795,258729
-90,76,125,283,-832,258772
7,54,-13,238,-753,258745
-23,-38,-23,360,-757,258744
-116,-42,27,332,-776,258587
-45,-49,-22,395,-818,258658
-86,97,97,423,-750,258634
-97,6,115,350,-767,258625
-7,-26,225,362,-772,258757
-8,6,205,431,-838,258674
-69,-55,-75,397,-848,258743
1,-9,-47,342,-771,258777
-58,-74,-36,456,-736,258688
-128,-80,-28,356,-817,258844
-43,77,139,395,-872,258752
-144,-5,89,323,-701,258588
-16,0,144,370,-737,258790
-4,29,155,434,-693,258723
-66,-47,-50,374,-821,258640
-56,36,-29,370,-788,258782
58,-39,103,391,-768,258675
-96,-116,-40,327,-819,258735
-100,-42,2,312,-798,258704
-14,12,134,380,-807,258631
-74,-4,41,416,-790,258735
12,43,97,339,-753,258745
12,-66,23,401,-802,258770
-54,-18,-110,323,-809,258783
28,80,77,339,-754,258783
-108,-52,-160,406,-811,258770
-73,-29,57,387,-749,258675
-82,-42,171,410,-813,258732
-34,36,76,354,-748,258700
-59,163,77,341,-709,258631
-9,-2,-49,368,-718,258763
-108,-45,-69,402,-774,258689
-45,48,-33,342,-867,258698
-88,46,-101,369,-796,258768
-86,13,16,419,-751,258773
-72,-19,191,424,-812,258779
-103,54,91,410,-816,258644
-9,157,-4,354,-703,258702
21,8,38,389,-733,258720
-83,-81,6,408,-797,258769
-66,50,46,390,-756,258719
9,104,1,374,-776,258812
-148,-1,-69,358,-776,258686
-10,-28,178,387,-770,258769
-58,24,182,409,-803,258771
-113,74,15,354,-820,258636
29,22,22,371,-793,258652
-1,-68,17,437,-896,258746
-110,-18,-41,427,-800,258711
-41,65,13,337,-747,258774
-100,-3,53,406,-756,258761
-79,-77,187,303,-833,258596
12,28,215,446,-786,258775
-72,102,14,391,-780,258779
-72,63,-56,367,-737,258726
-33,3,-11,376,-762,258771
35,9,25,435,-761,258748
-91,70,-29,393,-795,258745
-97,2,-3,294,-639,258802
-34,-7,195,325,-726,258731
-128,19,166,366,-862,258768
22,60,74,370,-824,258777
-46,35,48,335,-765,258734
-39,-69,-67,348,-775,258860
6,43,-8,409,-753,258821
-66,83,19,408,-848,258748
-133,-6,-40,416,-741,258655
26,33,257,415,-757,258677
-97,-20,129,411,-803,258699
-81,71,35,352,-842,258709
-5,57,-1,388,-814,258637
-63,-74,-88,351,-821,258672
-66,-22,66,310,-842,258641
-108,-41,-85,345,-833,258776
-13,-3,99,376,-808,258772
-122,-28,114,452,-812,258791
-72,-11,90,373,-805,258659
-64,92,30,375,-831,258683
-27,-17,-67,401,-807,258723
-82,-63,-73,326,-770,258673
-15,31,-85,375,-772,258794
-76,34,-118,383,-714,258796
-50,-4,27,368,-699,258803
-42,-33,125,379,-771,258805
-114,3,84,330,-742,258788
83,73,51,348,-657,258685
-24,3,12,438,-707,258731
-19,-77,-74,439,-819,258680
14,21,-29,417,-748,258668
-36,22,-25,346,-691,258726
-33,-50,0,381,-707,258691
63,-35,181,339,-756,258674
-34,1,127,377,-741,258701
3,85,49,369,-762,258704
80,56,77,380,-780,258673
-46,-79,-30,388,-789,258806
7,-29,-55,348,-829,258723
-13,50,-2,431,-762,258734
-69,-26,44,396,-706,258735
-35,-33,202,344,-757,258751
-97,19,172,401,-804,258721
-67,103,-5,427,-738,258657
-32,98,66,329,-823,258691
-66,-39,9,357,-835,258694
-91,18,-7,335,-869,258693
-90,113,35,312,-798,258593
-97,33,120,334,-785,258691
-78,-16,275,382,-832,258802
-92,16,197,352,-794,258747
-63,72,108,401,-816,258686
-123,49,-38,376,-850,258686
-19,-18,73,391,-787,258619
-85,-40,28,325,-803,258769
-157,-3,-8,338,-768,258806
-70,5,72,399,-749,258702
-108,-6,56,443,-792,258763
-85,14,140,322,-802,258665
-102,40,48,372,-798,258733
-56,32,-5,355,-788,258748
-79,-17,-30,333,-825,258716
-20,-33,-101,358,-814,258607
-95,8,-63,320,-749,258663
-59,21,96,359,-807,258824
-121,-15,99,367,-790,258764
-85,42,106,292,-773,258606
-92,54,-29,353,-864,258591
-47,40,-98,380,-796,258631
-90,34,-49,394,-826,258761
-164,-11,-147,422,-802,258802
-59,34,-76,387,-735,258701
-73,10,-6,396,-735,258674
-77,-41,29,337,-692,258791
-83,36,129,413,-788,258805
-59,24,101,378,-813,258779
-41,18,22,327,-771,258727
-45,27,-27,431,-758,258613
-14,-16,-76,416,-699,258688
-6,-5,44,343,-780,258651
7,-17,174,400,-807,258760
-103,15,138,427,-761,258712
-39,76,166,347,-678,258756
2,19,152,409,-828,258721
-17,4,150,406,-779,258657
-112,26,20,394,-822,258644
-63,47,-38,371,-685,258703
8,10,101,363,-740,258706
-67,-49,104,390,-734,258751
-38,45,175,345,-718,258627
-46,97,92,334,-677,258641
-49,37,22,307,-690,258718
83,34,70,453,-796,258734
-16,32,34,422,-848,258699
-104,2,-133,470,-780,258739
75,49,-12,372,-767,258659
73,-59,103,433,-734,258759
50,-9,162,425,-714,258745
-66,34,118,351,-783,258728
-20,16,-48,369,-766,258789
26,-10,25,353,-811,258797
0,-39,-160,421,-855,258762
-12,42,-210,370,-870,258739
-113,-42,-125,350,-790,258695
61,-115,76,354,-848,258708
-91,-63,195,299,-860,258729
-72,32,-94,336,-800,258787
2,56,107,362,-742,258804
-3,-94,-20,402,-759,258760
-50,7,-49,357,-843,258708
-109,76,-151,400,-742,258826
-60,-16,-166,417,-747,258759
-58,-63,236,413,-795,258784
27,26,125,392,-850,258859
-135,97,217,395,-743,258744
-121,-1,50,359,-690,258655
-22,-56,180,359,-738,258642
-130,3,36,444,-831,258653
-121,4,-140,395,-811,258642
-56,-65,169,392,-779,258756
-48,-87,175,461,-880,258821
-105,44,276,304,-760,258631
-68,107,68,323,-671,258747
-80,3,159,362,-762,258671
-27,-31,41,419,-790,258825
-28,109,-32,437,-784,258775
-119,70,-164,378,-749,258848
11,-17,-56,393,-746,258794
-50,-30,158,406,-867,258691
-78,77,-41,451,-743,258812
-76,146,89,325,-635,258765
-28,-19,-18,368,-774,258775
3,-8,132,385,-802,258610
-211,71,-180,354,-816,258695
19,116,-112,352,-795,258720
-46,-25,23,400,-768,258751
2,-42,80,402,-806,258698
-34,99,198,320,-773,258817
-39,130,7,397,-710,258860
8,-19,150,374,-803,258594
-5,-2,-17,401,-837,258647
-130,82,-175,334,-846,258629
-48,77,-153,409,-740,258522
40,-47,115,434,-704,258710
-150,-126,113,425,-802,258687
-48,69,53,386,-823,258727
-70,31,-6,449,-718,258782
-34,-108,3,451,-783,258691
33,-73,86,416,-808,258692
-132,39,-109,381,-691,258678
-81,35,-92,322,-673,258631
-6,-67,108,420,-828,258687
0,-79,176,437,-901,258816
-105,89,156,354,-803,258717
-116,32,56,341,-753,258737
4,-42,174,421,-791,258822
-62,-42,106,389,-873,258696
-154,27,-147,448,-771,258748
-119,16,-83,366,-788,258804
34,-151,121,427,-850,258762
-86,-85,178,482,-868,258680
-62,70,156,421,-833,258635
-141,18,72,383,-794,258741
99,-14,240,380,-821,258794
-62,-43,103,341,-814,258735
-154,92,-153,391,-785,258773
15,90,-10,312,-695,258810
-33,-80,115,395,-690,258724
-30,-46,193,306,-789,258808
-56,52,51,385,-751,258796
-50,63,11,406,-649,258734
17,-62,86,365,-770,258743
-85,-60,-36,374,-806,258580
-179,33,-222,377,-766,258622
-41,28,-204,363,-715,258648
-60,-109,-45,408,-716,258820
-88,-87,24,382,-814,258726
-8,43,139,394,-783,258767
-158,14,21,410,-731,258745
-16,-53,50,411,-750,258831
-52,-28,8,399,-793,258801
-70,12,-90,350,-739,258818
-136,6,-28,418,-722,258794
-19,-60,39,402,-790,258738
-67,-27,127,414,-813,258701
-82,33,10,350,-759,258728
-8,59,167,318,-784,258670
-118,7,126,392,-813,258668
-44,28,89,379,-794,258635
-133,78,-25,381,-686,258853
-66,63,-105,372,-734,258799
-58,25,18,397,-780,258765
38,28,121,403,-774,258870
-141,44,151,315,-807,258789
-77,68,111,303,-706,258753
61,110,218,385,-678,258845
-133,76,-31,440,-771,258678
-54,77,-55,324,-800,258745
-64,78,49,382,-713,258729
-97,20,68,360,-787,258663
-5,79,153,369,-837,258756
-48,53,211,374,-770,258703
-119,30,120,359,-817,258807
96,101,156,403,-827,258787
-15,0,39,334,-757,258837
-175,-37,-176,318,-723,258833
65,3,73,429,-785,258697
-125,-17,-94,397,-792,258719
-67,16,-5,329,-695,258758
36,-25,55,357,-733,258766
25,-29,194,364,-809,258864
-33,20,145,424,-797,258660
68,80,-13,380,-791,258736
-143,-79,-185,378,-753,258715
55,-50,-135,378,-789,258795
1,19,30,397,-764,258716
-105,10,-95,439,-853,258742
53,-16,203,314,-783,258815
-74,-91,65,440,-785,258694
27,40,8,395,-807,258704
-58,87,-121,388,-753,258641
-33,-18,-105,371,-822,258718
-89,-100,27,391,-794,258776
-30,9,-22,358,-769,258681
-82,70,23,319,-772,258819
-16,16,-51,349,-746,258781
25,-43,254,351,-731,258708
-91,32,128,412,-789,258782
-45,137,13,301,-785,258639
-90,11,-82,405,-786,258724
-57,-78,-119,364,-803,258828
-71,-40,59,350,-900,258655
-32,52,61,391,-842,258726
-124,-18,207,442,-754,258845
19,-81,246,409,-830,258779
49,56,222,388,-833,258784
-174,55,-89,378,-724,258619
18,37,-45,343,-693,258669
-76,-83,84,324,-775,258670
-33,-18,42,395,-755,258624
-53,121,127,313,-652,258733
-86,8,2,368,-751,258689
47,-15,250,311,-822,258604
-44,26,114,383,-821,258844
-40,120,-49,335,-672,258779
-122,54,-18,386,-731,258696
50,-70,45,452,-773,258735
-129,-5,122,308,-819,258600
-82,70,-165,396,-707,258773
14,13,124,407,-721,258833
-76,-80,172,405,-794,258866
23,12,169,288,-837,258699
-111,131,16,422,-750,258825
-46,-10,-184,373,-737,258699
-94,-59,-81,380,-702,258759
-48,30,-107,421,-813,258746
-130,-2,-8,364,-746,258726
-115,-15,70,416,-730,258899
-8,-20,150,342,-779,258730
-25,32,-38,429,-813,258614
-44,93,-35,394,-758,258701
-137,-68,-5,414,-744,258803
-49,-45,-55,385,-814,258795
-94,14,-4,410,-766,258683
-85,-51,-176,386,-778,258790
-45,-4,107,318,-750,258760
-89,-75,173,528,-753,258822
-26,46,117,353,-758,258703
-95,99,49,343,-702,258639
-16,-19,-186,424,-733,258690
-105,17,-82,350,-771,258717
-138,30,-20,384,-819,258731
-101,61,2,371,-748,258714
-59,84,223,444,-821,258741
-95,-17,102,349,-741,258766
-39,103,68,365,-785,258699
-10,80,18,493,-731,258797
-188,-48,-122,456,-744,258711
-64,3,92,398,-791,258690
-101,11,16,337,-788,258680
-79,50,97,331,-872,258639
-71,-46,138,392,-816,258736
-46,-29,116,344,-783,258756
-57,37,124,391,-783,258634
0,-9,96,350,-704,258719
-66,-40,110,420,-741,258737
-34,-53,71,384,-802,258743
-62,-8,-34,381,-811,258687
-108,3,29,351,-754,258777
24,-9,198,351,-703,258722
48,48,289,436,-767,258702
-88,19,143,454,-738,258744
-39,36,-55,360,-762,258712
14,58,79,374,-789,258689
-67,13,-50,374,-824,258740
-92,74,14,319,-799,258751
-78,16,91,368,-851,258767
20,45,77,340,-840,258653
8,102,248,376,-792,258637
-30,12,-36,394,-705,258848
20,89,96,329,-717,258712
-80,8,-9,332,-742,258702
-39,36,-45,352,-763,258642
-102,71,7,387,-743,258660
-69,-2,-72,328,-719,258794
17,82,199,349,-759,258856
-74,60,142,376,-788,258974
-41,84,18,316,-794,258789
10,43,-9,351,-738,258737
-79,-66,-119,391,-720,258730
-118,35,-154,372,-733,258737
12,94,-18,369,-759,258678
-130,-18,37,451,-770,258706
-48,-35,201,418,-803,258679
-12,35,120,372,-809,258724
32,130,-4,414,-756,258805
-78,-7,-111,343,-784,258677
-33,-65,-84,334,-833,258738
-76,-19,1,337,-796,258853
-98,29,-158,315,-713,258769
-70,6,-78,358,-736,258720
-38,-84,37,440,-787,258745
-60,-54,63,366,-820,258623
17,44,162,357,-792,258692
-26,-39,8,503,-746,258817
-70,-93,-18,350,-804,258724
1,-55,-3,410,-811,258716
-84,-3,-58,445,-821,258860
-131,-32,27,339,-851,258855
35,-74,256,405,-812,258705
-94,-36,183,423,-857,258697
-84,26,44,288,-759,258594
110,73,50,399,-703,258816
-102,-94,-8,349,-813,258811
-106,-89,11,332,-870,258849
-81,67,59,370,-805,258730
-87,-6,101,416,-728,258743
-18,-39,120,429,-758,258697
-31,-2,181,382,-791,258572
-53,70,39,421,-800,258702
52,100,94,423,-739,258676
14,-65,110,450,-726,258734
-38,-79,6,426,-763,258665
-87,54,-53,343,-751,258765
9,55,9,338,-751,258821
-11,-24,120,428,-755,258863
-58,-38,130,420,-858,258715
34,60,90,370,-769,258721
46,66,0,363,-729,258800
-37,-37,18,367,-786,258682
-46,-53,-51,396,-835,258594
-117,46,-75,390,-829,258650
-73,77,-93,418,-739,258694
9,29,-2,400,-804,258752
-28,5,110,398,-812,258737
-43,52,-7,353,-789,258784
15,83,65,324,-807,258804
-36,10,-50,366,-738,258770
-72,-51,-109,316,-771,258697
-106,-17,-120,264,-773,258732
-20,59,-38,452,-775,258803
-108,9,103,348,-795,258769
-63,3,4,345,-781,258769
31,29,130,461,-741,258792
-112,-25,-63,389,-775,258756
-16,57,-20,306,-749,258678
-124,4,-53,385,-710,258670
-148,-37,-95,352,-774,258687
-162,-3,67,394,-793,258585
-15,34,92,461,-736,258715
-201,21,85,405,-749,258803
-44,-9,82,342,-821,258677
10,-3,140,360,-791,258707
-59,38,14,413,-764,258737
-108,20,-13,418,-691,258713
-95,-47,-1,433,-792,258772
-48,-75,143,436,-786,258784
-41,5,159,443,-709,258757
-69,76,56,388,-718,258773
-28,-14,201,365,-764,258777
100,-82,193,407,-820,258731
-90,-39,43,401,-818,258807
-44,83,-32,315,-804,258798
-49,-32,15,458,-791,258804
-44,-98,224,437,-710,258768
-34,8,193,446,-876,258654
-114,106,26,412,-791,258755
82,49,143,439,-759,258849
42,-62,217,438,-760,258777
-49,-16,50,376,-838,258627
-70,85,-105,388,-725,258718
-47,-59,-45,348,-702,258671
-58,-151,62,379,-850,258811
-45,20,97,428,-890,258711
-170,86,-54,448,-783,258649
-80,39,-13,359,-743,258724
38,-69,140,355,-759,258748
-59,-13,0,417,-771,258720
-231,83,-182,380,-816,258796
-95,15,-110,403,-725,258811
-16,-73,108,370,-804,258821
-147,6,58,400,-876,258680
-147,117,-5,384,-814,258751
-46,59,43,357,-721,258787
-33,-65,105,355,-837,258732
-59,41,29,378,-855,258743
-113,123,-117,380,-743,258765
-179,-4,-25,320,-733,258799
-19,-68,121,429,-865,258751
-70,0,196,392,-861,258768
-158,91,-5,375,-732,258845
-2,62,70,352,-654,258735
47,-50,143,402,-728,258758
-55,0,-48,400,-776,258865
-77,101,-82,340,-793,258809
-63,47,-80,361,-772,258754
-70,-56,136,307,-830,258682
-53,30,68,397,-844,258657
-67,134,27,352,-786,258573
-61,8,-51,433,-700,258727
61,-63,60,406,-792,258728
24,-9,69,323,-728,258709
-94,0,-93,466,-741,258850
-57,-20,129,336,-783,258734
25,-69,156,388,-770,258751
-40,54,162,346,-799,258689
-124,70,-60,424,-759,258868
92,41,115,371,-767,258785
-4,-24,170,438,-791,258734
19,36,20,438,-840,258692
-67,74,0,318,-744,258638
-36,-37,-70,402,-787,258660
-44,-65,111,410,-813,258740
-34,70,107,477,-756,258845
-118,48,120,378,-795,258705
-24,4,110,318,-771,258735
8,-11,117,363,-742,258681
-103,13,-140,412,-767,258716
-60,93,-131,342,-783,258647
-7,-35,22,405,-834,258745
-42,-77,106,478,-853,258881
-171,14,43,352,-898,258806
25,116,42,282,-775,258767
-72,37,34,336,-718,258802
-35,-21,66,370,-774,258624
4,45,120,438,-723,258665
-75,59,4,435,-724,258895
-126,-19,10,261,-798,258633
11,29,109,373,-788,258725
-207,0,14,405,-750,258678
-60,96,4,353,-743,258887
-8,54,123,337,-803,258719
-30,-23,6,383,-766,258737
-45,36,78,389,-827,258626
-31,17,-65,388,-753,258629
-123,-20,-31,315,-727,258638
-99,-47,-90,406,-747,258704
20,40,71,363,-780,258646
-141,7,-34,415,-785,258636
-41,26,-1,358,-742,258782
17,-14,79,425,-685,258872
-4,3,-29,413,-781,258833
-115,-45,-49,367,-801,258697
27,11,40,412,-794,258698
-170,-53,44,389,-816,258793
-81,26,25,394,-822,258660
-18,74,92,399,-768,258645
-32,26,96,433,-767,258843
-32,30,118,277,-747,258713
-1,32,97,342,-787,258692
-72,28,-5,346,-732,258600
-21,-16,7,410,-734,258717
-43,-17,92,412,-815,258740
-211,-1,-7,422,-830,258799
-88,99,-16,327,-787,258675
3,77,13,315,-796,258734
-84,-8,-24,399,-810,258898
-126,18,23,404,-831,258736
-36,111,16,351,-799,258814
-61,37,31,410,-777,258821
-91,-19,42,357,-794,258752
-62,24,72,387,-812,258709
-30,79,92,354,-796,258638
-47,72,31,362,-782,258779
-26,4,48,361,-752,258810
-14,-25,-59,404,-739,258726
2,32,55,461,-762,258650
18,5,81,393,-745,258767
-102,-29,62,364,-784,258706
-13,3,127,369,-751,258762
-6,23,160,398,-803,258768
-53,7,173,361,-736,258706
4,-23,124,337,-768,258719
6,-31,76,380,-759,258690
-99,-73,-79,403,-846,258672
40,-42,73,419,-824,258666
-43,-76,82,368,-751,258645
-60,-51,123,415,-789,258859
-121,34,39,389,-809,258765
43,61,57,355,-765,258794
-44,-44,79,382,-780,258839
-40,-34,-63,406,-780,258812
-79,7,15,369,-780,258635
-17,28,-149,452,-670,258642
15,4,102,402,-781,258691
-182,-38,-113,439,-875,258687
-33,103,107,253,-768,258696
-101,59,20,368,-763,258933
28,60,-11,404,-806,258838
-136,-18,-54,296,-783,258795
-4,46,-95,410,-699,258749
-131,68,35,412,-703,258759
16,66,-7,403,-697,258703
-119,12,166,326,-880,258529
-66,35,71,381,-780,258630
-10,133,163,414,-778,258786
-114,91,-66,400,-721,258857
-30,5,5,301,-764,258689
-75,-28,64,339,-804,258779
-23,68,13,371,-792,258705
-135,77,3,350,-746,258714
-3,30,-23,369,-771,258778
-113,-56,132,373,-819,258712
-48,67,0,393,-796,258674
33,86,83,362,-750,258699
-82,-75,-69,458,-806,258677
68,-103,32,401,-808,258721
3,-46,87,388,-736,258698
-103,-2,-143,351,-712,258756
-103,-91,188,331,-767,258730
-41,-157,118,443,-809,258720
-48,19,183,359,-896,258843
13,47,-5,361,-726,258794
47,-20,56,396,-683,258790
-215,-231,41,446,-842,258657
45,-48,106,333,-818,258692
-130,80,77,417,-841,258746
-47,2,-67,435,-772,258776
-13,-57,239,292,-797,258771
-76,-28,11,388,-790,258777
-59,129,-7,359,-766,258851
-39,38,-54,426,-681,258752
90,-96,203,366,-800,258659
-149,-28,95,416,-824,258732
-73,99,-127,343,-788,258712
-144,22,16,336,-692,258787
-35,-96,74,412,-753,258790
-76,-3,204,384,-773,258736
-75,179,-169,387,-748,258685
-84,70,-69,296,-702,258758
-85,-78,-95,426,-820,258798
103,49,123,440,-833,258603
-166,68,-38,445,-823,258719
-27,17,-34,360,-697,258698
8,-15,139,357,-755,258785
78,58,-32,369,-789,258664
-100,132,-26,316,-791,258664
51,36,-77,419,-777,258747
103,-39,150,385,-749,258643
-70,-62,-14,366,-774,258771
25,66,9,376,-721,258792
-32,92,35,469,-674,258900
43,1,105,441,-751,258791
-61,46,111,325,-816,258711
-26,50,-22,376,-773,258765
-84,22,18,396,-688,258740
23,-16,2,393,-766,258825
-71,-35,68,330,-815,258667
-90,-8,-31,375,-768,258731
32,40,201,405,-824,258760
-129,0,104,388,-773,258747
-27,69,90,304,-821,258834
-46,72,7,366,-678,258891
-118,-18,-109,336,-758,258786
-120,-74,10,352,-881,258643
-60,1,-20,381,-778,258723
-72,77,120,398,-738,258810
-28,-20,166,403,-723,258791
-75,-19,236,287,-768,258538
-72,1,128,348,-814,258698
-12,67,2,370,-743,258701
-68,-15,-131,394,-696,258704
-24,-77,-84,419,-736,258794
-144,-9,-71,389,-777,258784
-61,49,15,391,-775,258670
-22,48,174,404,-685,258756
-79,-36,153,440,-671,258786
-44,16,151,345,-776,258747
-29,68,36,364,-753,258730
-118,-18,-97,406,-706,258613
4,-66,-95,377,-763,258631
-56,-49,-23,426,-781,258727
-137,-71,-38,412,-850,258723
-10,40,161,313,-775,258770
-95,-23,148,425,-772,258767
-64,-16,34,336,-764,258788
-58,41,-49,351,-807,258683
-39,3,-111,388,-736,258854
-93,-46,-4,355,-707,258693
-110,-77,3,280,-755,258680
-90,17,118,384,-756,258715
-54,55,96,323,-818,258663
-40,41,224,360,-763,258759
-134,28,115,466,-820,258698
-63,64,63,367,-785,258574
-64,56,39,367,-788,258676
-81,4,-66,374,-790,258737
-172,-38,-67,288,-811,258800
-58,15,20,299,-832,258681
-184,-15,89,381,-738,258704
-130,28,141,410,-793,258816
-68,68,196,378,-800,258685
-159,25,52,307,-797,258690
-79,48,24,359,-820,258625
-60,23,-26,287,-813,258817
-127,-16,-49,269,-745,258786
-89,-39,95,335,-753,258788
-133,-40,130,321,-724,258768
-118,5,139,322,-768,258722
-44,24,99,356,-797,258726
-88,-1,2,371,-705,258852
66,8,77,392,-779,258659
-67,7,38,308,-827,258720
-19,43,29,294,-809,258764
-54,-12,-24,344,-780,258715
89,10,101,371,-761,258696
-72,13,43,402,-814,258733
7,83,-5,325,-833,258679
49,38,119,410,-810,258724
28,-44,-64,407,-836,258716
8,-13,-28,295,-794,258625
37,20,-172,371,-777,258702
-30,-53,-9,282,-810,258658
18,-77,90,339,-806,258696
20,18,204,434,-766,258610
-151,45,-20,429,-761,258644
55,56,41,454,-759,258642
-60,-67,-35,371,-805,258683
-22,-6,15,354,-874,258683
-157,27,-69,402,-802,258803
48,54,103,478,-789,258782
-101,-7,145,405,-814,258602
-44,50,68,303,-764,258664
-114,107,28,298,-699,258740
-38,78,2,388,-770,258708
-74,52,88,434,-762,258673
-28,72,75,444,-748,258742
-109,54,-4,326,-788,258655
-60,-2,56,381,-747,258718
4,25,164,426,-810,258769
-134,19,106,433,-772,258770
-88,59,65,386,-777,258697
12,12,178,282,-748,258619
-115,-53,-64,349,-831,258804
-64,56,-116,417,-824,258601
38,49,-73,417,-763,258824
1,-68,108,427,-773,258794
-61,-54,136,464,-773,258750
26,46,100,431,-779,258711
-133,46,-66,377,-715,258717
0,-35,-68,356,-761,258733
-41,-28,2,364,-841,258676
-110,15,-163,378,-785,258681
-71,0,-25,301,-813,258723
8,-66,19,309,-823,258741
-88,-71,59,326,-908,258700
-31,66,4,357,-767,258703
-7,81,48,306,-714,258776
-20,-47,72,364,-820,258763
36,5,106,333,-800,258645
-59,61,-33,349,-714,258677
-39,57,-13,360,-727,258715
23,-34,100,393,-746,258722
-3,-42,201,446,-778,258772
-117,87,15,335,-811,258630
-18,123,21,307,-717,258664
-22,8,0,378,-749,258783
-79,-25,15,400,-788,258644
-129,55,-102,373,-760,258551
-45,97,43,338,-772,258733
-118,-73,43,453,-721,258783
39,-46,248,417,-779,258679
-124,21,77,439,-847,258677
-138,65,72,477,-836,258738
-52,13,68,371,-827,258766
-21,-4,137,338,-817,258690
-221,6,-95,330,-837,258730
-40,68,2,411,-759,258827
-69,-16,89,433,-727,258704
6,-32,134,379,-800,258621
-89,23,112,335,-838,258697
-26,70,30,403,-693,258773
-50,-8,14,403,-788,258748
37,-29,-29,471,-784,258730
-69,1,-79,351,-799,258723
-83,-5,-128,368,-733,258741
57,-12,128,422,-776,258737
-11,-19,120,438,-814,258693
-35,14,48,325,-771,258837
-39,60,-54,323,-785,258742
-4,55,-31,466,-744,258633
-43,31,22,335,-780,258713
-23,62,-25,354,-822,258728
-142,-28,-94,366,-728,258728
-6,14,82,350,-748,258734
-15,27,34,390,-785,258748
-59,79,105,370,-791,258746
-102,-14,32,322,-765,258819
-74,-2,121,320,-841,258750
-88,61,-107,364,-750,258768
-28,73,-94,286,-730,258646
-148,-97,-67,344,-740,258705
-85,-83,147,332,-791,258730
-50,3,99,356,-797,258769
-101,56,48,330,-749,258658
-89,-69,3,407,-753,258702
5,-68,188,343,-823,258699
-143,26,-88,391,-801,258625
-107,30,-27,408,-756,258734
-45,-88,-53,516,-748,258924
-39,-113,220,431,-815,258665
-68,40,61,421,-802,258641
-64,120,116,306,-729,258758
-4,-63,83,356,-761,258922
7,-38,238,350,-836,258556
-87,58,-94,390,-813,258647
-47,136,-84,432,-714,258789
-34,-47,31,412,-740,258580
40,-32,154,414,-861,258783
-47,68,82,391,-892,258773
17,141,154,426,-754,258778
-70,-39,120,472,-763,258783
109,43,141,406,-833,258740
-135,86,-141,500,-862,258752
-25,101,-53,391,-754,258866
-86,-68,13,398,-752,258863
87,-74,195,364,-814,258748
-122,26,-13,371,-861,258765
-15,64,6,389,-768,258693
13,-3,94,430,-814,258727
67,18,151,392,-856,258686
-164,37,3,320,-901,258681
5,64,-27,333,-716,258824
-3,-83,56,359,-760,258711
37,-44,37,424,-800,258722
-96,25,74,413,-703,258783
-54,-1,33,387,-770,258860
29,-48,211,410,-769,258809
-80,-45,-5,437,-749,258796
-38,87,24,296,-758,258687
-82,17,-79,369,-692,258710
-88,-60,-82,348,-757,258667
-23,-28,93,353,-759,258703
-67,34,-30,383,-753,258684
-116,-20,116,383,-768,258688
23,-53,44,478,-742,258690
-89,11,2,380,-767,258758
-107,55,-92,395,-745,258762
37,51,-56,469,-728,258740
-161,-55,-7,461,-852,258704
60,16,-64,376,-763,258709
-82,75,132,446,-806,258665
-45,-8,-87,493,-811,258600
57,14,249,296,-854,258833
-93,-3,40,413,-809,258764
-37,42,42,310,-848,258659
-68,-3,26,398,-776,258647
-21,-98,-40,444,-721,258819
-97,0,119,389,-748,258742
-43,10,-21,440,-733,258695
-108,-9,128,397,-817,258702
-27,-5,143,438,-779,258658
-90,1,44,305,-858,258632
-160,94,59,307,-753,258614
-51,12,-23,360,-818,258700
-117,-11,104,421,-749,258658
-120,-4,-23,325,-826,258672
-82,32,23,423,-822,258792
-93,93,109,389,-709,258678
-59,-9,136,369,-834,258776
-170,25,34,334,-813,258728
-101,85,48,339,-744,258770
-141,-36,-55,309,-742,258763
55,25,-56,404,-821,258676
-128,14,33,267,-761,258792
-102,-22,-145,363,-700,258878
118,118,280,310,-808,258716
-117,-43,102,346,-733,258758
14,64,7,315,-746,258810
-29,66,70,366,-753,258615
53,-35,-48,360,-769,258832
-79,45,30,386,-845,258779
-16,46,32,451,-844,258748
-28,15,-64,370,-746,258796
95,82,192,361,-818,258785
-40,-42,-73,357,-802,258776
14,95,1,280,-728,258682
-130,-18,-36,352,-728,258729
-77,-45,-67,359,-749,258733
-31,79,69,375,-720,258721
-105,23,-107,424,-779,258658
32,42,70,385,-842,258700
-57,8,159,331,-852,258675
-110,15,-1,339,-846,258735
-1,132,130,332,-758,258749
-92,-42,-34,414,-777,258788
-144,-55,-7,324,-747,258711
-3,46,121,290,-789,258860
-88,11,-17,366,-831,258739
-70,3,63,395,-747,258782
11,-18,203,425,-759,258755
-81,15,52,402,-769,258745
-20,73,71,355,-775,258722
-57,-72,-140,416,-744,258862
-32,-75,56,391,-797,258852
-125,8,48,416,-764,258697
-25,63,48,356,-790,258735
-70,4,206,359,-778,258738
-25,-73,69,393,-841,258885
34,54,240,328,-859,258768
-179,38,-82,325,-772,258737
-13,9,44,287,-785,258789
-95,-45,122,388,-820,258836
-56,-12,-53,405,-821,258783
-78,27,149,344,-739,258800
-42,-93,64,412,-848,258749
-56,-75,204,383,-749,258797
-132,4,75,356,-722,258731
-37,41,-26,460,-776,258748
-130,-24,125,338,-751,258622
-31,-79,55,390,-759,258790
-144,54,99,406,-717,258799
-116,66,-15,348,-688,258789
-44,-36,-8,385,-700,258653
-21,-24,197,418,-817,258643
-108,62,24,407,-797,258691
-79,139,37,398,-736,258778
-45,-17,3,419,-663,258841
-104,-117,-29,397,-748,258760
-57,67,54,331,-763,258737
-139,80,-91,320,-776,258704
-32,-42,97,374,-772,258654
-84,-140,57,415,-790,258736
22,27,10,442,-824,258692
-48,98,-73,426,-722,258761
-72,-60,-41,344,-733,258792
-87,-110,133,288,-772,258657
-85,3,52,406,-705,258716
-84,99,-83,319,-719,258661
-16,-7,-6,321,-753,258748
30,-110,148,405,-822,258706
-132,3,87,365,-858,258655
9,126,50,418,-771,258743
-3,30,61,440,-735,258759
-55,-105,90,428,-852,258727
-45,-61,-26,440,-781,258704
-110,65,-73,351,-731,258698
-73,-38,-43,355,-733,258693
63,-33,227,328,-784,258716
-95,-29,93,389,-800,258774
-68,56,-56,301,-794,258747
74,43,32,386,-763,258711
-136,-113,-111,377,-780,258671
-72,37,40,318,-807,258602
0,134,51,379,-783,258669
-34,77,112,397,-729,258748
5,27,70,411,-714,258749
-29,40,13,377,-769,258749
-76,87,-33,351,-701,258631
56,58,72,296,-698,258686
-137,0,80,393,-730,258742
-195,3,-81,333,-815,258711
24,86,85,432,-729,258649
-64,14,22,431,-774,258728
17,-9,101,374,-807,258768
-127,43,93,325,-812,258729
-110,5,30,374,-782,258692
57,48,151,388,-749,258694
-52,-7,13,378,-786,258672
-73,-16,-107,288,-685,258685
-34,17,63,297,-824,258726
-34,-27,12,404,-824,258679
-73,73,67,388,-782,258741
20,59,53,317,-650,258704
-56,-20,3,384,-725,258680
12,10,136,422,-803,258817
-45,7,-78,510,-745,258857
-201,7,-114,335,-679,258758
-94,-37,-98,349,-728,258768
-3,-17,176,374,-806,258705
-68,23,110,343,-790,258693
-109,69,-91,312,-721,258764
-30,9,48,416,-707,258807
-39,-27,8,483,-772,258789
-84,66,81,396,-777,258687
-76,134,-100,419,-737,258772
-77,22,10,429,-804,258639
35,-59,121,350,-784,258657
61,61,162,348,-794,258719
-103,81,-51,335,-782,258794
35,22,-50,358,-782,258766
43,-75,57,366,-785,258681
-6,-3,-17,358,-765,258659
-25,117,97,343,-679,258717
-50,-14,-56,387,-650,258816
37,-7,150,276,-853,258672
-27,50,14,367,-811,258682
-47,145,-59,323,-770,258680
-3,98,124,372,-703,258699
5,-102,87,434,-797,258672
-119,10,76,367,-817,258721
-50,111,-134,340,-726,258752
-47,55,41,295,-685,258754
-66,-64,136,410,-753,258660
53,-14,187,383,-769,258777
-157,91,-26,368,-723,258784
70,37,-40,455,-762,258730
5,-63,100,405,-743,258626
-98,-37,-6,382,-865,258644
20,76,157,326,-755,258755
-117,-6,84,493,-767,258678
124,-49,138,371,-800,258655
-15,-9,98,484,-833,258713
-61,34,-170,496,-844,258752
-84,42,88,284,-836,258749
33,-32,117,373,-759,258820
-12,-7,178,351,-736,258707
-121,40,-29,414,-804,258629
7,8,-127,313,-771,258728
-15,-60,159,367,-833,258831
-52,-61,-46,431,-778,258660
-99,77,36,331,-833,258649
20,35,23,393,-751,258761
-34,-73,52,463,-825,258825
-134,-65,59,282,-897,258710
-20,0,-102,354,-774,258722
-207,-18,97,358,-752,258708
-33,-55,12,375,-840,258736
-18,49,163,320,-802,258628
-136,2,-71,387,-758,258732
-129,-38,-35,429,-799,258764
-103,-58,147,414,-908,258753
-104,-26,34,466,-838,258865
-164,-12,50,334,-754,258856
-15,-46,62,404,-786,258790
-155,-111,26,312,-788,258698
-36,27,64,395,-764,258714
-46,13,104,429,-691,258805
-96,-44,-42,444,-727,258775
56,-58,139,463,-739,258686
16,-54,62,506,-713,258784
-186,-18,-33,410,-763,258772
17,-8,103,341,-700,258765
88,-20,96,380,-714,258769
-127,-21,86,332,-794,258639
-3,57,-115,378,-771,258650
90,87,141,391,-729,258716
-211,-61,-99,392,-732,258716
7,69,-25,270,-775,258723
-57,81,62,339,-824,258724
-164,-33,-193,453,-738,258698
-15,66,130,321,-731,258691
-30,83,25,439,-782,258817
-100,79,22,381,-806,258649
-16,72,140,425,-808,258650
-41,51,-46,436,-812,258682
-164,106,-64,396,-799,258710
30,73,-42,439,-752,258733
-66,23,47,404,-737,258704
-165,11,-32,335,-774,258593
-33,113,-67,433,-808,258663
-97,83,-47,398,-802,258739
28,21,6,367,-781,258725
3,75,132,327,-773,258637
-84,39,47,424,-784,258591
-99,72,-7,394,-740,258728
44,67,66,430,-779,258724
-51,3,70,413,-845,258665
-104,22,-14,374,-784,258847
55,74,125,411,-732,258826
7,35,114,474,-734,258726
-47,-42,41,387,-851,258862
-90,-26,30,291,-751,258670
12,6,83,422,-709,258755
-81,-27,91,382,-727,258741
-17,48,147,363,-774,258748
-72,-18,128,415,-843,258786
43,45,211,348,-785,258792
-74,-3,95,377,-762,258721
-48,4,-54,418,-722,258742
-58,10,-51,399,-659,258718
-73,-70,37,392,-757,258636
-43,-29,184,402,-824,258633
-72,44,97,380,-758,258749
-90,38,-8,378,-746,258757
1,27,16,414,-744,258661
-14,24,63,454,-780,258858
-109,12,112,383,-788,258777
-34,25,88,380,-800,258624
-134,-44,46,387,-799,258701
-52,-13,-62,405,-761,258670
-17,8,16,427,-799,258773
-160,-48,-23,419,-790,258817
-68,10,28,436,-782,258673
-85,30,31,401,-739,258679
-67,5,-92,385,-762,258758
-139,-23,-68,342,-782,258656
-14,-40,-22,420,-777,258683
-52,-2,141,440,-772,258810
-136,-25,84,416,-804,258725
1,-36,130,358,-770,258732
-6,-30,95,423,-811,258666
-34,-83,-52,319,-786,258673
-69,-40,44,263,-803,258688
-68,-98,-31,336,-733,258713
-106,-88,101,326,-831,258666
-55,-70,51,399,-852,258678
-53,-5,65,419,-827,258649
-104,27,-12,361,-733,258840
-40,-23,24,389,-767,258693
-117,37,101,374,-826,258726
-15,23,37,480,-768,258813
-128,-3,40,401,-771,258708
-88,32,73,368,-823,258809
-64,1,83,327,-787,258664
-125,27,81,388,-761,258881
-73,29,179,294,-794,258802
-83,68,127,399,-773,258761
-84,84,40,304,-752,258671
-43,46,-38,405,-805,258738
-101,31,9,432,-776,258782
-89,9,30,346,-753,258765
-45,62,146,391,-747,258750
-171,-6,13,382,-757,258741
24,44,101,328,-781,258640
-115,48,73,336,-760,258675
-77,70,-57,384,-818,258773
-134,52,61,379,-758,258728
-95,-9,-49,451,-834,258733
-117,21,110,363,-837,258634
-75,24,-61,455,-770,258760
-28,30,-51,405,-680,258703
-121,-21,65,328,-704,258711
-53,14,-14,338,-598,258702
-96,67,108,294,-757,258653
46,29,-19,378,-756,258703
-60,-36,59,430,-732,258641
-20,1,73,459,-781,258831
-50,9,-44,338,-684,258690
-48,54,23,293,-734,258662
-51,-39,41,372,-853,258745
-50,-3,-20,421,-774,258738
10,66,40,399,-809,258740
-22,-45,-16,330,-825,258790
-32,6,-19,460,-756,258753
-23,15,215,442,-787,258637
-91,-22,-67,393,-791,258736
13,125,56,348,-771,258724
10,-23,202,448,-761,258688
-52,-57,-66,391,-776,258800
-8,137,133,400,-763,258746
-36,-16,-106,403,-764,258765
9,-67,-85,294,-663,258723
-33,-8,118,360,-804,258808
30,-33,137,394,-754,258685
-89,8,57,375,-680,258656
23,27,76,391,-713,258683
23,-10,189,398,-801,258724
-69,29,-136,453,-779,258634
-16,87,23,368,-769,258621
-1,17,82,437,-766,258771
36,-20,91,359,-790,258760
-50,50,71,329,-785,258828
0,6,-46,362,-740,258700
-39,-42,-43,429,-838,258704
112,61,81,394,-800,258759
5,44,123,344,-768,258697
-34,-31,21,349,-696,258650
35,-12,77,332,-775,258691
79,2,123,351,-806,258548
-67,-46,-144,429,-820,258750
25,64,-2,356,-758,258703
90,41,308,385,-721,258701
-109,-43,17,405,-801,258816
71,131,64,351,-837,258660
-60,-2,-31,363,-736,258630
-13,-94,-88,416,-788,258733
7,44,202,263,-773,258591
-138,-51,-81,377,-841,258736
-15,11,2,364,-787,258840
-76,8,159,294,-845,258733
-94,-44,-53,357,-860,258737
7,171,25,374,-754,258752
-159,-20,-68,401,-740,258700
-39,-95,-29,441,-798,258793
-91,93,98,357,-818,258640
-193,15,-152,338,-801,258593
-77,39,24,316,-784,258789
-144,-50,132,384,-840,258618
-153,-23,-25,348,-822,258685
-83,202,83,335,-797,258739
-191,21,-90,345,-785,258671
-69,-69,5,411,-847,258672
-71,56,89,457,-852,258610
-211,63,-92,403,-753,258720
-74,30,28,426,-736,258784
-50,-52,234,395,-818,258759
-206,-27,37,366,-831,258760
-87,167,-8,265,-755,258704
-64,40,27,391,-759,258696
-92,-66,5,392,-687,258767
-58,27,102,408,-718,258717
-110,68,-47,417,-744,258638
-70,72,34,370,-752,258612
-25,-99,148,336,-837,258807
-54,-51,35,396,-766,258842
-110,119,0,329,-777,258746
-5,-16,6,415,-694,258679
29,-77,150,424,-733,258798
-112,-62,27,462,-776,258685
27,23,17,371,-789,258790
-4,15,34,344,-597,258736
-6,-58,125,363,-709,258742
21,-35,244,365,-754,258727
-166,-12,-103,370,-848,258705
46,60,97,378,-761,258751
30,-111,72,427,-768,258686
-42,-66,-57,378,-808,258689
6,61,179,323,-753,258664
-29,-55,-62,465,-761,258771
2,30,132,304,-748,258751
49,13,59,453,-848,258634
1,45,-91,391,-796,258687
-52,95,66,273,-807,258758
80,-9,-6,479,-714,258657
-59,46,46,382,-691,258842
-9,45,-73,353,-741,258797
42,-2,79,350,-783,258751
-86,-40,28,471,-720,258756
4,52,22,298,-796,258721
-56,71,-35,391,-738,258761
-63,-9,-152,413,-749,258775
-43,5,42,341,-736,258674
70,63,37,445,-751,258781
-125,42,5,483,-763,258707
-42,-32,35,436,-765,258664
-8,3,34,393,-809,258719
-148,35,-66,345,-778,258691
16,70,-1,345,-726,258732
-86,-12,99,421,-766,258845
-70,-93,66,389,-796,258700
1,54,84,365,-748,258707
-70,24,-81,355,-748,258773
-57,-66,53,377,-766,258724
2,-38,173,421,-826,258722
-108,23,46,414,-818,258687
-97,69,0,289,-693,258778
24,-11,29,379,-755,258716
-106,-79,83,382,-818,258723
-114,20,-10,349,-758,258772
-40,56,6,454,-748,258788
-52,-35,123,414,-744,258841
-7,-45,138,446,-775,258764
-191,41,70,307,-785,258808
-97,137,-74,326,-782,258801
12,86,137,341,-732,258735
-151,-85,11,420,-885,258761
-62,85,10,375,-827,258677
-106,105,101,400,-709,258858
-40,27,-5,377,-792,258723
-36,55,206,275,-807,258655
-115,44,-58,431,-776,258877
-138,77,-2,376,-797,258711
67,83,120,400,-750,258651
-30,12,74,411,-805,258650
-170,26,-36,458,-803,258746
103,87,1,466,-791,258749
-84,-23,83,373,-787,258723
-16,-10,-15,380,-821,258712
-16,27,126,387,-738,258756
-154,-51,-115,389,-718,258704
80,-1,117,312,-761,258714
-29,5,14,442,-782,258755
-54,-65,-49,373,-743,258723
8,-43,203,347,-809,258737
29,-63,88,371,-725,258922
-87,15,55,386,-746,258660
29,40,3,436,-766,258786
-108,-69,-1,373,-739,258787
-29,24,9,349,-816,258806
65,61,129,388,-740,258804
-155,-15,-110,352,-695,258729
25,-22,-12,295,-718,258714
-21,-51,58,397,-792,258744
-132,14,-59,403,-805,258766
-97,109,117,356,-774,258720
-99,9,-12,392,-755,258739
-127,-16,64,354,-745,258751
-85,3,88,434,-724,258799
-119,16,38,346,-720,258903
-135,21,114,321,-711,258811
33,-27,159,383,-737,258777
-200,-48,-5,369,-772,258796
-130,15,-39,263,-706,258697
-95,6,34,392,-768,258742
-165,-51,-6,389,-775,258763
-36,49,111,351,-757,258727
-57,70,-17,377,-712,258744
-62,-15,-8,371,-736,258678
-11,-44,113,421,-814,258689
84,-10,184,377,-854,258729
-174,5,-37,404,-730,258620
10,49,94,387,-695,258683
-34,-44,45,427,-686,258703
-45,38,38,280,-751,258782
-99,1,-48,368,-726,258803
76,3,65,388,-710,258806
-74,-61,171,367,-745,258811
28,38,95,349,-893,258777
-140,84,109,360,-743,258742
-68,-13,-4,360,-727,258832
-35,-33,137,384,-772,258757
-30,6,54,454,-758,258752
-109,6,0,359,-771,258702
-14,21,102,415,-835,258711
-126,-28,28,330,-862,258858
-8,60,94,319,-733,258766
-124,64,9,385,-745,258708
-98,15,50,310,-762,258759
-125,41,68,377,-805,258694
-110,0,-8,409,-816,258701
-187,-3,2,381,-792,258801
-11,-3,104,496,-754,258763
-173,-31,115,415,-787,258700
-80,2,-41,395,-777,258670
47,35,85,370,-728,258724
-170,-47,-133,412,-741,258688
-34,63,-7,327,-853,258675
-39,64,-49,444,-771,258622
-33,-22,-29,415,-801,258736
83,-50,102,376,-784,258625
103,-14,153,387,-803,258669
-41,-20,-53,353,-752,258739
86,15,42,337,-716,258766
-39,-76,-20,366,-760,258718
-143,-23,-62,366,-755,258576
54,78,54,342,-780,258666
-26,-9,29,299,-780,258770
-66,-103,-36,349,-810,258691
49,74,69,381,-849,258641
-16,48,-59,417,-830,258709
-32,28,56,356,-755,258854
-30,-46,134,458,-735,258799
-101,62,130,389,-794,258727
-170,123,-104,296,-767,258765
177,116,150,343,-737,258726
-175,-49,-74,434,-852,258645
17,68,192,389,-803,258577
-153,66,102,448,-667,258777
-184,50,17,359,-724,258827
-204,4,71,318,-800,258751
-84,59,49,486,-721,258675
-384,36,118,346,-709,258645
-131,37,147,352,-689,258776
-148,-33,231,379,-779,258802
-129,-20,-2,491,-820,258656
-72,108,78,299,-776,258709
-232,66,-129,355,-757,258768
-31,46,206,347,-745,258775
-190,-62,84,448,-774,258721
-28,86,-49,331,-835,258701
-94,102,9,404,-756,258776
29,-31,-86,481,-699,258850
-89,-58,194,381,-877,258741
-47,-2,-76,376,-858,258779
-26,25,60,413,-765,258753
-74,-62,-4,440,-778,258758
9,-64,97,410,-815,258703
-160,-18,13,412,-761,258733
87,45,-29,386,-757,258773
15,-91,225,382,-737,258726
22,-109,-55,400,-780,258842
53,18,101,388,-744,258683
-11,-16,-135,450,-794,258783
3,-31,25,270,-810,258605
-50,-48,35,384,-747,258697
88,38,34,429,-768,258784
-193,-58,-31,340,-738,258635
185,0,-73,346,-851,258722
-16,14,-6,387,-800,258683
14,-8,-179,458,-816,258618
7,67,100,389,-745,258717
-33,6,25,394,-724,258740
-7,28,77,369,-782,258724
-39,54,-1,335,-727,258787
81,34,-51,403,-794,258645
45,8,126,434,-789,258622
159,-17,88,421,-756,258715
45,-25,177,346,-752,258830
184,68,45,347,-866,258772
66,45,-27,393,-813,258717
-44,32,-90,350,-777,258607
66,23,-35,384,-834,258642
73,23,176,389,-726,258632
109,-2,119,357,-768,258731
-10,17,54,331,-768,258740
92,68,-8,420,-811,258744
131,23,216,403,-783,258694
-191,-62,63,376,-781,258685
-116,93,1,330,-769,258714
3,90,39,397,-713,258776
-101,17,-3,418,-778,258669
-21,29,187,263,-792,258625
4,67,164,348,-761,258859
-203,9,-4,349,-772,258741
-72,19,-43,354,-802,258714
-51,20,-111,401,-743,258658
-190,26,-30,355,-775,258711
-310,-33,-49,330,-796,258707
-122,14,119,356,-787,258758
-138,-19,103,410,-790,258786
-236,-64,-2,342,-805,258668
-178,-52,-30,407,-824,258604
-143,-13,70,406,-756,258613
-277,-65,15,509,-765,258745
-231,-36,39,467,-800,258681
-299,-62,-7,371,-807,258720
-162,-20,13,378,-739,258725
-109,55,67,408,-767,258707
-145,-9,81,364,-764,258662
-105,-49,112,391,-797,258749
-93,-10,76,393,-810,258696
-152,-5,-125,423,-807,258649
-130,23,-169,408,-760,258732
-76,-23,-7,378,-757,258629
-126,-63,34,318,-819,258757
-64,37,122,365,-803,258766
34,30,44,402,-768,258644
16,-5,64,281,-756,258679
-30,-2,30,408,-815,258732
-41,63,35,432,-764,258668
29,116,56,434,-766,258682
18,20,85,407,-742,258769
26,13,8,340,-737,258722
154,105,77,385,-760,258684
86,66,-9,455,-731,258715
184,51,12,392,-687,258743
73,-16,53,330,-732,258622
62,46,-60,385,-783,258637
87,109,57,314,-705,258687
156,24,-16,408,-783,258656
48,-22,76,361,-790,258639
45,44,66,242,-775,258635
113,81,48,318,-816,258716
160,28,191,369,-730,258737
96,-65,30,389,-765,258668
53,46,157,300,-785,258704
-4,77,-87,401,-787,258800
9,49,74,331,-829,258764
-3,-44,56,334,-785,258727
-2,4,0,333,-781,258749
9,106,24,360,-744,258698
138,18,21,398,-715,258808
-76,-68,115,370,-761,258766
-80,12,-5,442,-795,258777
-109,69,75,408,-774,258802
-137,-10,-32,361,-747,258846
-72,-66,161,384,-768,258678
-159,-43,34,403,-811,258726
-148,34,30,358,-734,258773
-113,3,44,403,-704,258841
-28,-33,99,460,-787,258755
-273,-56,-46,348,-839,258742
-137,130,-75,418,-797,258797
-206,12,78,443,-704,258660
-160,-52,64,371,-814,258733
-214,-11,187,353,-832,258798
-204,37,-69,428,-753,258764
-138,47,65,374,-772,258650
-156,-71,97,393,-771,258634
-239,-33,3,351,-858,258649
-264,83,57,453,-786,258638
-241,21,-38,428,-773,258771
-229,-27,81,380,-800,258676
-121,8,63,420,-804,258807
-228,34,9,471,-727,258776
-87,41,72,445,-761,258768
-44,-23,168,445,-771,258678
-196,-14,-5,410,-788,258668
-103,46,10,258,-711,258686
-174,15,-24,404,-758,258778
-64,-7,61,346,-762,258750
-63,-5,60,379,-790,258768
-151,16,-111,337,-754,258810
75,34,59,338,-757,258682
56,19,110,365,-790,258741
-115,-15,6,355,-821,258703
-43,15,29,345,-770,258752
10,6,64,401,-755,258701
-32,-26,47,339,-739,258741
-4,44,-25,355,-813,258603
53,-3,57,346,-766,258672
80,-58,82,372,-761,258730
123,41,51,397,-777,258786
49,41,-96,409,-726,258749
52,-15,-94,343,-741,258707
122,-67,73,344,-839,258767
47,-35,15,431,-831,258719
61,44,15,426,-726,258642
84,-67,54,457,-717,258734
191,-128,130,464,-827,258667
43,-51,-3,374,-828,258610
74,83,-55,354,-741,258731
85,42,74,367,-762,258790
10,-100,150,450,-791,258830
-3,-8,117,373,-798,258665
12,82,-28,310,-738,258616
39,57,1,360,-748,258673
155,-10,200,391,-817,258685
-30,-33,87,400,-833,258786
-32,104,7,337,-837,258789
20,83,50,413,-713,258736
-54,20,54,401,-804,258792
-96,57,52,375,-766,258754
-65,87,2,438,-760,258708
-76,68,77,379,-764,258745
-28,21,95,411,-779,258701
-62,56,64,390,-805,258772
-161,37,-16,369,-780,258718
-131,6,36,409,-800,258736
-160,44,63,406,-829,258807
-172,88,6,399,-777,258766
-231,45,12,396,-718,258713
-161,-19,28,445,-747,258713
-101,17,68,492,-810,258692
-129,102,-45,407,-753,258678
-165,27,-39,389,-664,258749
-135,-60,122,407,-694,258687
-213,-46,76,383,-781,258673
-216,34,-26,347,-769,258717
-143,18,-64,391,-758,258762
-156,-96,50,383,-798,258757
-56,-14,144,338,-821,258704
-156,84,53,379,-746,258794
-191,11,-36,430,-746,258832
-71,-49,76,406,-746,258782
-156,-29,93,385,-854,258609
-198,92,17,419,-767,258677
-148,81,62,364,-781,258768
-143,-55,64,372,-770,258875
-105,-42,34,341,-870,258742
-17,96,-52,342,-780,258714
-98,65,1,403,-692,258735
-86,-82,147,315,-801,258727
-47,-60,174,374,-834,258842
-174,47,-41,361,-799,258806
-49,19,-90,379,-725,258784
51,-69,179,392,-829,258736
19,-105,201,388,-808,258680
-93,23,71,356,-793,258615
55,79,39,383,-813,258670
43,-83,101,383,-785,258723
-50,-113,76,396,-797,258732
29,39,136,406,-768,258820
-68,27,-12,426,-723,258792
55,-28,91,362,-767,258833
105,-72,159,410,-776,258734
-54,-15,-90,346,-772,258692
18,39,-28,346,-737,258769
120,-79,78,471,-768,258868
-95,-86,38,395,-777,258790
64,43,135,333,-813,258650
-61,44,21,351,-725,258777
-67,-51,-19,414,-797,258816
105,-54,-18,385,-809,258767
46,13,-40,343,-803,258626
-68,-16,-90,405,-702,258632
26,31,100,345,-797,258685
-46,-9,55,423,-839,258784
-65,32,23,351,-764,258694
-113,21,-74,360,-809,258857
20,28,58,397,-713,258773
-52,22,70,438,-719,258765
-17,55,24,414,-778,258773
-70,73,-1,366,-719,258768
-13,58,-1,381,-771,258745
-83,21,89,350,-773,258597
-33,83,22,403,-778,258784
-110,65,75,292,-700,258756
-11,44,38,371,-718,258701
-98,63,27,427,-796,258700
-31,72,-26,402,-794,258771
-39,38,32,405,-809,258779
-59,-31,114,450,-815,258754
-104,-6,49,321,-803,258581
-43,66,-31,315,-771,258718
-79,24,43,363,-787,258707
-91,-12,-15,413,-781,258659
-10,51,85,342,-819,258664
8,41,38,389,-723,258623
-77,3,26,318,-755,258763
-16,2,86,396,-735,258789
34,72,109,374,-722,258738
-189,-4,-83,360,-743,258671
15,5,122,350,-768,258621
29,-18,102,392,-782,258831
-50,29,11,332,-710,258710
-20,74,-87,374,-723,258712
-9,13,10,271,-732,258631
-35,-36,81,284,-725,258761
7,66,110,339,-745,258656
-137,3,-61,380,-763,258738
-46,-15,-23,247,-750,258811
13,-60,69,338,-731,258788
-100,8,-28,392,-761,258794
-98,39,-107,323,-726,258637
36,7,61,395,-733,258659
-115,-56,5,399,-769,258665
20,73,67,350,-807,258610
-111,13,-36,409,-733,258662
-35,-17,52,356,-716,258689
-38,-66,104,425,-803,258659
67,66,29,394,-787,258719
-95,11,-78,383,-715,258779
58,-35,41,357,-744,258766
-42,-73,86,393,-751,258830
-3,-11,77,376,-730,258681
-119,-1,-11,342,-759,258697
27,-18,111,364,-742,258750
-135,-87,46,389,-810,258676
21,48,32,426,-820,258757
-84,2,-36,405,-716,258821
-7,15,24,445,-735,258745
-60,-40,172,419,-751,258778
26,31,119,368,-735,258770
-123,36,42,359,-735,258723
-27,-7,17,385,-779,258707
-155,13,21,350,-796,258519
-41,72,47,378,-677,258727
-85,64,28,354,-743,258780
-169,-1,-48,405,-761,258621
-89,4,52,343,-713,258718
-85,39,61,292,-790,258820
-99,26,37,348,-819,258733
-111,-18,61,388,-832,258737
-116,13,-36,392,-772,258879
-59,55,-18,384,-767,258719
-32,85,-7,400,-754,258745
-93,-21,28,398,-805,258762
-72,17,111,289,-799,258679
-40,56,40,286,-807,258628
-12,52,40,270,-755,258675
-13,27,46,335,-748,258839
-95,-6,79,330,-786,258688
-56,25,-28,342,-764,258649
35,94,79,383,-722,258637
-32,-44,34,455,-711,258674
40,19,103,408,-749,258712
-61,43,95,327,-795,258695
22,61,40,334,-796,258613
23,32,111,427,-747,258716
23,-27,143,391,-768,258818
-28,35,60,341,-812,258772
13,99,-14,282,-835,258786
50,44,17,402,-805,258750
-58,-13,36,387,-815,258715
31,-7,117,298,-813,258713
18,41,159,316,-762,258723
-66,-21,35,377,-761,258714
10,-6,15,344,-789,258693
-8,28,-118,332,-758,258838
-46,26,-43,367,-744,258782
68,31,228,385,-804,258729
-113,-43,114,397,-802,258811
-71,-15,18,275,-770,258722
74,57,22,355,-730,258747
-79,-8,70,405,-707,258739
-141,-5,72,347,-800,258666
-26,14,120,362,-819,258716
-135,-38,-35,371,-752,258726
-80,-8,-117,380,-783,258675
-36,8,-70,426,-769,258701
-182,-17,-16,351,-720,258731
-224,-65,-29,311,-763,258750
-10,-5,176,365,-782,258706
-192,37,-139,429,-774,258811
-112,20,-30,386,-778,258722
-139,-53,8,408,-785,258753
-181,-20,-13,389,-807,258630
-88,89,31,393,-829,258758
-145,-57,-24,477,-781,258789
-185,-141,54,394,-780,258774
129,62,179,445,-861,258665
-118,86,-20,368,-803,258846
-264,-18,-116,325,-749,258819
-49,-87,109,415,-801,258745
-29,34,82,441,-882,258767
-166,38,-78,413,-852,258757
-53,32,38,310,-795,258765
42,-91,231,409,-790,258690
-123,25,92,395,-789,258700
-123,110,-43,349,-783,258693
-69,10,14,346,-713,258684
-17,-53,174,299,-858,258732
-122,-13,103,334,-831,258665
-52,199,-25,352,-780,258683
-41,71,18,378,-688,258715
-14,-77,191,399,-778,258767
-53,4,136,344,-883,258742
-71,127,32,296,-806,258783
-58,83,-46,399,-742,258727
-49,-31,64,335,-786,258723
-53,17,24,414,-809,258808
-44,142,-42,412,-764,258822
-29,22,74,453,-694,258760
23,-50,121,388,-708,258733
60,-2,139,342,-773,258706
-36,92,-21,381,-772,258651
-54,30,-70,316,-747,258622
66,-15,36,365,-801,258750
23,-12,47,416,-815,258701
-71,27,-18,340,-750,258714
-23,44,72,371,-704,258689
94,7,175,329,-758,258701
-44,-9,74,364,-750,258816
-6,67,29,328,-743,258708
20,16,6,478,-710,258666
-16,-72,92,374,-848,258594
-59,-14,56,366,-890,258659
-56,23,4,381,-737,258648
-23,16,14,411,-746,258721
43,-72,113,351,-748,258767
-37,-57,109,367,-850,258763
-32,37,75,334,-774,258686
-46,-2,28,326,-717,258680
-70,-36,-18,402,-732,258721
5,-3,52,422,-782,258677
-89,22,8,447,-780,258790
-64,6,92,386,-806,258787
-66,-90,122,357,-753,258714
-53,-59,107,356,-736,258679
-56,-4,23,375,-801,258755
-95,7,-55,395,-758,258691
-48,-18,6,334,-696,258611
-119,-39,70,354,-773,258642
-157,-14,38,363,-741,258706
-88,-1,61,358,-773,258698
-6,-22,108,334,-750,258748
-153,-35,63,453,-762,258781
-130,39,10,403,-722,258775
-99,90,-6,388,-798,258755
-105,-3,16,370,-861,258767
-162,-23,-18,337,-822,258748
-180,64,-73,344,-838,258760
-27,98,59,385,-842,258691
-166,15,4,395,-801,258708
-116,-3,49,336,-789,258723
-72,47,73,392,-794,258640
-117,44,30,421,-814,258729
-165,2,-63,353,-807,258720
-3,52,77,419,-848,258650
-205,-20,-8,335,-854,258782
-64,44,80,345,-830,258660
15,34,149,428,-716,258583
-123,-61,-23,390,-727,258593
-7,1,88,386,-880,258687
-2,34,86,431,-773,258681
-113,47,-22,361,-744,258688
-28,42,86,316,-774,258661
-78,-42,60,335,-780,258771
-66,21,61,311,-783,258681
75,62,96,442,-778,258808
-96,-58,28,491,-748,258844
-57,-59,63,363,-798,258660
87,24,169,352,-824,258656
-114,30,-62,392,-788,258807
-69,11,-28,303,-775,258758
-1,-17,32,364,-719,258673
-3,-5,89,346,-757,258786
-63,50,57,375,-775,258677
-38,15,13,403,-750,258634
51,-28,105,413,-753,258652
44,13,60,357,-762,258677
-63,58,-20,380,-775,258634
-37,15,-38,363,-719,258697
-4,-76,104,351,-715,258705
-83,-40,27,294,-815,258660
56,108,37,338,-816,258621
-87,-2,-73,432,-734,258776
29,-86,76,352,-840,258786
89,12,179,384,-813,258746
-56,73,-71,407,-767,258734
-101,11,-109,377,-754,258641
-10,-69,-20,393,-726,258658
40,-61,65,319,-812,258550
-58,77,-71,364,-769,258675
-9,29,-38,417,-728,258752
-11,-76,72,399,-809,258705
27,-32,83,364,-893,258758
-76,58,-20,375,-782,258699
-115,59,-140,363,-778,258745
-113,-62,52,372,-748,258573
82,-21,171,388,-835,258787
-90,40,108,393,-771,258695
-156,14,-89,344,-714,258715
91,-9,180,424,-693,258660
-44,-25,94,398,-740,258791
-52,91,60,319,-710,258786
-163,48,-31,327,-683,258686
-74,-14,-57,286,-786,258697
11,50,110,387,-784,258689
-42,87,-108,424,-773,258653
-101,40,67,320,-740,258669
-26,-59,77,374,-796,258737
58,24,205,396,-803,258678
-78,118,-22,426,-817,258655
-84,61,-74,299,-815,258577
-91,-8,139,373,-750,258760
36,37,165,363,-784,258760
-113,76,122,322,-835,258583
-46,26,-47,436,-761,258609
62,-55,154,416,-843,258737
-58,-25,3,364,-851,258737
20,103,23,338,-802,258611
-115,29,-1,372,-769,258741
-104,-102,-30,357,-781,258704
-41,2,70,383,-777,258620
29,93,-48,456,-736,258810
-76,19,55,424,-678,258736
74,-60,169,407,-736,258762
-52,2,164,353,-831,258675
-47,111,-115,368,-721,258718
58,76,17,374,-772,258697
-128,-76,3,396,-814,258814
-99,7,-8,342,-726,258637
-69,132,-33,299,-739,258728
-39,24,-108,425,-739,258756
-97,-125,92,342,-851,258656
79,-14,101,403,-818,258713
-184,46,22,375,-772,258746
-141,1,-182,313,-722,258772
12,-27,100,305,-854,258800
-133,-78,-38,371,-794,258691
-39,56,29,270,-800,258752
-50,-35,69,362,-696,258739
23,-87,86,475,-799,258617
-102,-47,70,399,-789,258741
25,87,-47,369,-705,258796
-174,-8,-40,340,-710,258668
43,-53,80,465,-828,258613
-100,-12,105,401,-714,258738
-100,95,-14,349,-715,258685
15,58,79,395,-778,258632
17,-32,143,404,-817,258570
-47,-35,75,356,-754,258624
-70,73,16,377,-710,258776
-70,20,-1,331,-699,258792
-50,-85,108,332,-756,258725
5,-6,90,391,-783,258599
-136,51,-157,376,-784,258691
37,59,-45,349,-763,258740
42,-39,111,356,-747,258718
-50,-22,188,334,-810,258654
-37,95,114,381,-779,258831
-84,65,106,400,-745,258744
-136,-35,10,400,-755,258703
34,70,162,339,-781,258700
-119,57,56,364,-750,258785
-93,41,92,378,-693,258833
11,-15,226,352,-770,258760
-80,21,-37,362,-705,258774
-72,122,-77,381,-778,258647
-68,68,-100,391,-813,258726
-118,-29,58,419,-844,258676
-157,16,-3,360,-812,258679
-5,90,-20,396,-752,258745
-158,9,-141,403,-741,258724
-11,-48,-60,359,-817,258571
31,2,164,454,-786,258637
-80,41,-14,420,-746,258796
-104,53,102,327,-747,258812
3,10,108,360,-785,258754
-118,11,123,348,-781,258641
-63,73,17,505,-816,258677
6,61,50,458,-775,258756
-73,-52,54,461,-682,258725
24,-8,98,394,-775,258718
-76,23,-86,410,-750,258652
-90,66,-117,357,-751,258853
-153,-7,-108,392,-730,258743
16,41,27,366,-762,258771
-109,56,81,441,-724,258727
-29,29,3,456,-733,258813
-16,23,128,354,-800,258647
36,15,8,433,-822,258737
-136,-4,-31,349,-833,258636
-5,-2,20,447,-810,258766
-94,-33,156,401,-828,258833
-141,-41,15,400,-796,258819
-45,31,104,318,-733,258774
-66,-18,67,381,-760,258718
9,-40,157,340,-738,258633
-81,-7,147,351,-733,258601
-1,3,74,454,-770,258691
-161,-69,55,370,-762,258703
-12,-23,40,364,-790,258766
-145,8,56,420,-782,258691
-85,47,-45,427,-761,258741
-6,-27,211,367,-822,258735
-54,-43,115,360,-820,258737
-60,19,92,351,-804,258684
-89,36,-24,373,-770,258727
15,17,89,391,-786,258619
-139,-23,153,397,-831,258610
16,85,54,415,-763,258803
-90,41,126,355,-809,258737
2,-46,-31,298,-805,258739
43,-13,251,300,-773,258669
-44,0,-24,371,-828,258704
17,70,21,307,-777,258731
-71,-38,4,376,-778,258656
20,-44,13,491,-857,258852
-138,32,15,404,-676,258810
-10,67,-133,411,-653,258776
-66,-30,135,386,-775,258707
28,-34,40,448,-851,258697
-9,60,109,345,-869,258702
-44,51,-100,376,-794,258695
-27,-42,29,346,-808,258685
-93,-74,90,396,-809,258679
-28,57,-22,381,-786,258680
-107,26,29,348,-713,258790
26,-16,-37,444,-813,258764
6,-76,216,284,-831,258673
-78,18,-127,371,-767,258648
-29,59,-15,386,-743,258703
-47,-40,-21,429,-788,258735
-88,-45,35,379,-803,258733
-209,24,-13,336,-805,258691
60,141,-56,443,-817,258822
-167,-52,70,383,-770,258730
-26,-33,-27,345,-818,258676
-36,56,224,321,-766,258778
-167,48,-123,396,-801,258815
-51,45,106,273,-810,258679
-138,-43,9,348,-827,258658
-89,68,28,265,-834,258706
-165,53,103,330,-803,258646
51,53,85,354,-785,258654
-210,-51,145,318,-827,258675
37,21,-25,451,-781,258792
-99,34,153,393,-769,258806
-164,-44,-160,394,-786,258676
-43,31,207,342,-782,258640
-257,-68,-52,388,-810,258865
35,93,90,302,-835,258666
-224,-21,102,327,-806,258683
31,-70,-124,501,-798,258774
-98,-25,319,346,-806,258706
-116,-84,-221,427,-743,258632
2,59,201,363,-739,258693
-176,-113,-3,434,-716,258785
18,-55,-40,378,-719,258785
-177,78,313,342,-781,258739
53,-71,-126,393,-722,258828
-94,81,218,244,-755,258706
70,13,39,352,-823,258751
16,9,-25,401,-834,258693
-70,164,64,358,-781,258704
-27,-58,13,360,-793,258625
-133,8,-118,362,-765,258749
105,158,224,337,-773,258737
-180,-96,1,441,-762,258739
94,125,-128,349,-730,258849
-69,63,427,232,-820,258787
-39,-133,-308,490,-740,258841
87,214,129,288,-782,258676
-240,-16,66,425,-803,258767
-17,-71,-278,373,-767,258668
-40,199,305,282,-794,258654
-91,-49,-88,512,-781,258727
-65,29,86,378,-734,258698
23,87,80,453,-742,258865
-59,-97,-23,334,-808,258622
-34,56,21,367,-757,258697
-96,33,-193,413,-730,258828
-138,5,81,308,-752,258769
23,-2,110,390,-812,258814
-74,-5,63,352,-765,258690
-97,-3,-62,331,-737,258619
50,-66,19,367,-782,258683
0,3,180,374,-869,258764
-60,-38,-66,437,-812,258840
-59,-35,61,366,-803,258815
-175,-51,-40,404,-832,258721
109,39,14,303,-801,258750
-92,3,88,392,-730,258684
-68,-80,4,422,-713,258801
7,43,204,334,-787,258674
13,11,39,344,-772,258681
49,24,-10,366,-762,258698
-88,9,56,358,-717,258728
-91,-61,-47,387,-743,258746
11,41,110,381,-771,258833
-20,9,152,342,-761,258795
-78,0,-138,396,-753,258755
100,64,138,365,-772,258697
-53,-95,66,406,-753,258727
68,92,0,337,-798,258645
-59,42,159,353,-813,258705
-127,-164,-164,371,-772,258793
38,86,144,363,-808,258756
-116,40,-52,467,-851,258789
31,16,4,352,-746,258703
-99,9,117,369,-808,258719
3,-63,-22,451,-839,258784
10,108,186,321,-760,258666
-136,19,-49,340,-767,258738
-69,-74,-77,301,-770,258653
8,2,30,386,-798,258748
-102,30,-40,403,-827,258744
-80,30,45,363,-789,258808
18,-54,-7,370,-740,258760
-33,-38,-60,353,-716,258708
13,86,-29,340,-778,258731
-62,57,26,336,-709,258748
-17,-27,103,386,-744,258851
-7,-6,123,321,-788,258811
-69,67,-28,340,-727,258714
-73,111,-122,411,-747,258747
50,37,-12,339,-785,258625
31,-49,36,408,-799,258780
-130,71,59,391,-853,258671
-36,94,52,374,-830,258701
7,-19,22,450,-681,258753
-70,-2,8,358,-862,258642
-11,50,45,322,-760,258626
-96,50,-94,344,-816,258681
13,38,94,400,-774,258755
29,-15,157,444,-776,258726
-113,70,-73,442,-806,258673
-25,93,116,379,-766,258677
-41,-28,97,368,-731,258824
-93,1,99,306,-830,258779
-111,68,100,304,-778,258770
-105,-57,11,409,-746,258796
9,-10,65,419,-817,258762
-46,67,94,385,-855,258678
-45,16,6,427,-865,258731
-61,41,96,405,-798,258777
-74,-25,112,376,-783,258797
-43,25,58,345,-734,258743
-71,83,51,379,-672,258759
-170,-25,-72,374,-684,258734
2,21,161,413,-742,258704
-73,55,80,456,-743,258685
-122,62,-63,379,-707,258659
-5,45,123,339,-764,258724
-44,-22,221,374,-809,258837
-136,72,41,412,-712,258748
-20,145,25,455,-735,258777
-40,-45,92,442,-748,258742
-63,-57,18,419,-874,258775
-30,92,67,371,-876,258658
-101,41,-59,471,-693,258803
-16,-59,79,366,-804,258732
-46,-106,166,378,-802,258752
-85,25,19,356,-705,258699
-102,53,-31,352,-706,258710
41,-45,15,362,-730,258716
-34,-60,70,359,-794,258722
-119,26,-55,352,-739,258752
-29,51,48,424,-722,258770
-159,-115,54,411,-699,258743
-68,-120,147,373,-783,258661
-45,66,85,453,-781,258799
-119,36,-85,369,-702,258805
-49,-24,0,347,-779,258829
-57,-65,73,414,-835,258673
-119,-14,-43,341,-818,258756
-43,80,-10,359,-747,258668
-14,-48,-47,436,-712,258853
-38,-23,55,364,-824,258773
-109,19,21,362,-790,258700
-89,61,-45,356,-810,258650
-84,-10,6,364,-829,258659
46,-79,10,374,-816,258781
-55,16,63,398,-805,258767
-95,49,-29,345,-785,258678
18,32,209,358,-729,258639
-132,-64,110,342,-833,258682
-18,10,85,363,-821,258805
-91,116,63,438,-774,258679
-59,5,-35,341,-746,258642
13,-5,152,407,-787,258689
-85,15,-49,428,-784,258749
-28,46,-89,310,-782,258877
-14,29,112,368,-746,258792
-82,-91,-9,404,-798,258703
-83,33,22,342,-784,258743
18,85,-35,378,-707,258790
-60,10,100,346,-770,258587
-13,28,68,433,-823,258669
16,80,126,366,-756,258709
-199,-21,-116,343,-759,258662
68,71,80,397,-744,258766
-87,-51,178,385,-729,258764
-17,13,60,334,-766,258619
-86,90,202,382,-724,258630
-29,1,16,388,-791,258702
-110,-3,24,224,-778,258652
53,65,91,350,-827,258618
-144,4,-16,389,-853,258732
-145,42,-18,363,-832,258721
2,24,140,413,-838,258560
-133,-5,-6,417,-738,258657
-107,57,28,381,-700,258582
-112,9,63,407,-704,258777
-64,4,92,404,-752,258769
-135,1,17,363,-766,258682
14,39,12,483,-759,258551
-153,-62,17,388,-794,258663
-66,-32,156,348,-780,258660
-68,-32,46,446,-716,258796
-137,-22,-41,349,-749,258774
-32,-34,-20,299,-782,258825
-6,-17,34,408,-734,258768
-151,-15,-109,399,-817,258708
15,35,61,405,-805,258682
-116,-50,-47,414,-756,258698
59,37,98,357,-765,258694
-60,-7,103,365,-760,258725
-10,46,21,439,-680,258797
-73,81,118,370,-738,258684
-25,16,-18,324,-711,258657
-21,34,32,364,-821,258831
25,16,0,451,-834,258684
-3,22,60,295,-796,258813
-13,26,110,315,-838,258818
45,11,145,370,-784,258634
-59,-7,40,342,-731,258730
-3,45,-14,397,-797,258734
23,54,104,416,-755,258766
-63,20,8,466,-741,258696
-41,11,61,303,-797,258707
-13,46,78,384,-760,258737
-90,17,46,389,-852,258701
-84,17,56,367,-805,258686
42,16,126,399,-795,258722
-220,-24,36,401,-844,258661
-36,59,9,323,-766,258627
-59,48,55,422,-788,258682
-229,-74,-123,430,-760,258655
23,-3,162,417,-776,258673
-116,9,53,357,-740,258733
-146,-23,-8,356,-713,258738
-23,-29,119,425,-781,258761
-71,-38,66,490,-748,258844
-184,5,-83,382,-783,258550
22,56,56,316,-753,258641
-126,-104,-58,459,-775,258849
-93,-37,66,452,-828,258713
23,17,91,394,-721,258719
-156,-20,-61,449,-772,258687
-77,-3,-93,319,-739,258747
105,19,99,382,-760,258766
-150,-16,-25,355,-720,258768
-72,35,-3,339,-754,258750
53,27,106,419,-784,258783
-117,-16,-3,415,-755,258724
-70,44,-32,363,-730,258799
13,79,-32,452,-708,258810
-56,-7,56,369,-809,258713
9,-18,186,303,-831,258711
-102,37,-30,284,-756,258725
-65,79,-76,321,-704,258671
40,-12,57,419,-784,258632
-46,-90,30,416,-764,258747
-25,4,136,365,-772,258790
-79,-11,52,379,-758,258774
-17,-57,88,346,-691,258728
-50,-64,87,382,-746,258715
-64,-2,6,364,-773,258817
-96,45,16,344,-737,258811
-43,2,110,364,-730,258706
-35,-82,140,362,-795,258741
-26,15,77,433,-733,258835
-97,13,-13,380,-697,258731
-24,-38,42,394,-747,258662
-23,-21,56,389,-858,258627
-61,32,32,411,-773,258711
-76,61,-34,359,-741,258791
-48,63,59,394,-754,258752
7,-23,75,386,-836,258709
-19,61,-58,371,-798,258712
-58,70,-23,371,-769,258635
88,13,97,377,-792,258803
-77,-25,72,391,-817,258661
-1,18,5,268,-813,258566
-29,74,-98,315,-803,258739
-67,7,-32,260,-799,258775
112,19,130,260,-840,258692
-48,36,98,297,-758,258663
-97,-3,-11,352,-747,258761
99,54,133,408,-731,258719
-9,-13,66,421,-764,258856
-63,27,-5,309,-772,258732
10,42,26,337,-774,258678
-94,-48,-10,374,-708,258720
0,-3,105,401,-720,258774
-47,12,40,365,-758,258736
-89,-20,74,343,-698,258728
-83,-53,83,375,-793,258690
-81,-16,63,366,-810,258632
-103,55,-8,359,-805,258602
-71,-1,4,369,-849,258651
-45,-73,111,376,-777,258727
-90,2,95,327,-786,258656
-30,40,70,342,-773,258828
-1,19,9,457,-662,258798
-42,-95,54,323,-822,258783
-34,-29,76,337,-822,258736
4,106,75,297,-746,258743
-97,41,21,302,-730,258682
-57,-28,-32,370,-752,258626
-28,-5,22,342,-822,258711
0,62,14,440,-688,258795
-68,57,43,385,-722,258772
-47,-29,60,369,-808,258697
-39,33,67,353,-848,258786
-155,76,-134,349,-836,258686
-16,117,-56,403,-779,258696
10,18,64,399,-752,258750
-173,-66,-28,298,-772,258724
16,93,44,313,-732,258723
9,119,-17,416,-795,258713
-109,-21,-42,415,-838,258704
-24,30,28,380,-851,258745
-123,31,-88,477,-811,258765
-149,78,-120,394,-728,258703
82,59,108,405,-734,258738
-137,-42,57,364,-846,258693
-148,25,22,332,-786,258652
35,38,59,350,-773,258693
-12,13,8,441,-738,258793
-65,-25,63,375,-784,258723
-49,-7,118,385,-782,258701
-90,62,25,350,-752,258761
-36,76,-22,340,-753,258754
37,34,41,360,-727,258715
-72,-38,97,402,-771,258797
-23,30,189,391,-731,258824
-21,64,188,350,-840,258795
-84,-14,45,413,-825,258699
-78,20,-26,424,-812,258704
25,52,17,397,-793,258775
-51,31,87,412,-771,258737
-48,-31,129,361,-733,258723
-29,-54,57,355,-723,258657
-25,-23,28,312,-726,258744
-23,-65,47,389,-711,258798
-72,-65,16,416,-783,258806
-45,-22,125,347,-817,258675
-77,-68,46,353,-819,258800
-120,-3,-53,370,-790,258658
27,51,-8,355,-780,258723
-57,-17,20,409,-820,258773
-108,-45,85,421,-787,258715
-12,20,151,340,-794,258722
-117,30,-26,380,-745,258738
-65,3,-50,367,-753,258686
-6,-24,24,348,-762,258728
-179,-14,-59,397,-757,258688
-9,64,48,381,-750,258733
-60,44,62,372,-709,258689
-73,-30,13,353,-740,258810
36,45,74,376,-732,258745
-102,48,-47,363,-735,258577
-182,34,-101,360,-766,258669
47,63,158,375,-743,258787
-84,-20,97,494,-773,258805
-225,7,-51,330,-739,258695
18,90,61,331,-803,258760
-32,34,63,375,-847,258832
-134,-15,-16,384,-769,258712
-3,24,107,358,-775,258748
-146,20,21,382,-726,258850
-86,33,12,295,-807,258697
6,30,87,320,-849,258772
-163,-15,-14,447,-810,258685
-67,9,42,359,-787,258698
82,24,183,414,-782,258735
-110,-83,10,337,-734,258733
-14,-22,15,333,-756,258614
-31,-26,64,343,-745,258716
-134,-26,11,500,-775,258814
7,30,151,405,-738,258803
-39,-11,84,406,-784,258697
-161,-24,-40,317,-777,258622
23,70,-10,367,-806,258651
59,59,-9,383,-732,258740
-133,-8,7,398,-793,258649
7,46,138,417,-776,258789
-57,87,124,431,-690,258729
-10,101,46,344,-731,258743
-23,-5,61,343,-745,258780
-34,-12,71,369,-794,258681
-26,76,109,355,-851,258666
42,76,126,350,-729,258762
-77,0,12,433,-789,258825
3,-9,166,444,-866,258714
5,70,150,410,-746,258731
-124,78,38,396,-742,258707
-59,-5,-33,365,-724,258729
-1,-48,99,377,-881,258622
-106,-11,33,465,-850,258692
-6,130,36,389,-763,258746
-124,9,15,394,-718,258690
-111,-78,21,353,-751,258672
-42,36,168,391,-712,258673
-134,97,-143,428,-679,258726
-114,56,-13,345,-694,258646
-49,-105,27,405,-834,258809
-86,-34,84,337,-828,258747
-117,52,-34,316,-721,258657
12,20,26,398,-778,258655
-158,-159,32,328,-817,258778
-13,-15,2,275,-839,258765
-113,65,-51,396,-699,258711
-46,63,-55,357,-698,258746
19,-99,199,436,-806,258750
-22,-43,121,365,-769,258828
-63,75,-7,344,-649,258748
20,85,-61,447,-649,258732
-89,-75,-13,318,-737,258725
-38,-14,103,358,-756,258619
-63,130,38,359,-771,258776
-9,118,29,383,-767,258822
-37,5,43,387,-790,258782
4,-18,128,384,-861,258665
-119,40,-15,396,-837,258727
-50,52,21,390,-722,258775
-45,-58,51,373,-735,258766
-27,-55,47,323,-838,258682
-37,48,0,346,-839,258800
-87,-2,-14,366,-734,258858
-127,-87,60,371,-760,258691
-42,-94,170,334,-829,258797
-82,-22,-2,369,-773,258777
-161,18,-87,291,-738,258710
-24,-29,-12,356,-757,258822
-114,-83,-2,425,-756,258796
-98,-6,73,344,-774,258651
-38,38,63,294,-734,258673
-76,23,7,387,-771,258709
110,-19,148,380,-835,258753
-94,-32,8,412,-825,258820
-86,-11,9,354,-774,258735
-16,9,106,346,-745,258791
-122,-103,85,386,-758,258732
-68,-37,85,360,-778,258714
47,66,61,307,-749,258690
-97,31,-55,385,-692,258714
17,3,77,377,-751,258699
-9,-16,106,404,-792,258720
-102,28,-8,374,-853,258683
42,70,44,345,-769,258778
-88,21,-59,359,-793,258718
-94,42,-37,351,-861,258749
-54,83,-19,341,-784,258751
-107,32,27,409,-812,258802
-69,-9,27,401,-779,258751
34,13,60,394,-806,258759
-63,22,15,404,-757,258747
-40,36,6,358,-800,258764
-90,-2,66,411,-926,258770
-66,3,57,271,-790,258730
-100,-16,64,336,-777,258805
34,-11,72,420,-784,258721
-64,-18,27,407,-772,258761
-72,8,-47,375,-860,258823
53,67,131,413,-786,258727
-51,-30,137,461,-791,258766
-78,-53,33,388,-880,258714
39,20,33,378,-774,258778
-54,-25,-94,343,-765,258813
-4,-17,61,320,-719,258664
6,-17,87,412,-806,258689
-127,-31,14,345,-828,258790
14,24,60,321,-768,258772
-37,36,50,419,-780,258697
-118,47,-10,384,-792,258720
-25,83,76,415,-758,258749
-122,26,70,448,-752,258725
-42,48,97,332,-735,258722
-10,66,97,327,-753,258748
-74,16,-29,335,-756,258791
-63,-26,29,378,-740,258707
-38,-43,14,384,-736,258643
-70,40,-63,378,-782,258716
-89,54,-37,387,-755,258754
-14,-1,30,326,-779,258713
-44,25,145,341,-823,258695
-12,34,61,374,-810,258725
-37,10,-21,334,-804,258763
50,-14,88,335,-788,258757
-78,-41,69,339,-781,258688
-40,46,28,340,-814,258708
-77,60,3,443,-803,258543
-68,-42,52,409,-765,258559
-39,12,76,372,-805,258632
9,120,125,411,-766,258703
-19,75,1,436,-779,258788
-35,-7,45,352,-765,258660
-29,-29,28,395,-727,258682
-92,41,-84,379,-740,258780
-6,41,27,293,-672,258778
-60,-76,112,398,-752,258859
-67,-23,99,365,-872,258766
-41,84,-3,301,-768,258726
-60,9,-18,370,-694,258695
-19,-93,72,371,-784,258780
-45,-30,119,400,-789,258826
-123,35,6,467,-791,258735
-103,10,29,349,-764,258796
9,-68,199,437,-795,258758
-86,-50,130,409,-824,258785
-108,10,-15,405,-784,258702
-11,-20,37,417,-778,258685
-16,-143,74,437,-814,258758
-30,-52,48,430,-714,258673
-112,29,-66,404,-768,258568
-68,-21,-60,405,-729,258642
-11,-107,105,334,-791,258752
-19,-91,15,409,-871,258730
-81,1,-66,364,-819,258777
22,-38,11,429,-768,258871
-54,-93,26,434,-781,258776
-70,-7,-3,422,-819,258757
-64,69,-30,418,-666,258771
-88,31,12,369,-684,258745
-43,9,92,342,-845,258672
-67,91,47,388,-778,258763
-83,122,-34,431,-695,258795
-82,41,-89,373,-778,258770
27,51,38,409,-810,258720
-95,80,7,419,-761,258655
-112,101,-60,373,-738,258753
-111,65,-21,306,-811,258712
-82,48,8,417,-766,258806
-86,103,-1,428,-789,258699
-45,106,26,316,-733,258678
11,50,73,386,-756,258658
3,73,97,381,-712,258743
-1,91,68,332,-770,258749
-99,58,42,350,-790,258801
-27,8,110,329,-719,258673
-27,43,123,323,-795,258708
-79,35,79,377,-786,258700
-66,-3,57,424,-791,258595
-15,-6,77,361,-688,258767
-9,10,100,335,-709,258716
-58,56,44,403,-805,258723
-93,15,7,398,-828,258733
10,16,68,393,-803,258647
-101,18,-40,374,-788,258719
-114,70,-101,314,-788,258757
50,78,98,368,-774,258753
-46,-8,104,404,-747,258716
-50,40,98,358,-752,258659
-51,85,-9,335,-675,258710
-84,0,-23,343,-726,258840
36,0,76,464,-767,258752
-66,39,49,442,-789,258664
-138,45,-15,335,-760,258782
13,4,80,305,-722,258793
30,-53,83,377,-874,258769
-43,-30,-46,407,-847,258750
-60,6,-38,340,-774,258770
-59,-56,26,320,-753,258728
7,-38,130,371,-761,258717
-105,-8,-3,392,-773,258754
-96,23,-73,365,-754,258814
-3,-8,48,423,-791,258712
25,-24,139,358,-866,258829
-37,5,94,372,-848,258897
-80,5,76,374,-798,258826
-87,-63,39,304,-780,258749
28,-31,117,332,-731,258599
-32,-27,114,490,-779,258642
-152,-43,21,305,-744,258659
9,-67,177,361,-696,258715
14,-57,156,483,-744,258749
-74,6,-8,387,-838,258684
-6,14,20,335,-750,258736
-19,-79,76,416,-728,258771
-76,-46,93,397,-809,258684
5,81,120,387,-787,258721
-131,32,-34,386,-763,258786
-85,-52,23,414,-836,258669
74,37,159,457,-824,258717
-124,63,-48,382,-716,258741
-45,67,16,316,-659,258742
-33,-20,147,461,-763,258786
-191,-57,22,358,-802,258633
-39,117,29,367,-798,258636
-101,53,-96,406,-720,258724
-121,-62,15,359,-754,258665
29,-24,163,404,-884,258778
-62,29,78,401,-774,258821
-136,46,-104,330,-763,258767
0,17,-44,338,-798,258777
-86,-16,-69,404,-789,258672
-76,83,-5,264,-761,258700
-107,58,-28,408,-715,258672
-72,-5,15,399,-804,258726
-22,10,50,352,-808,258762
-114,72,-57,376,-788,258679
-102,89,-125,340,-773,258680
-97,10,-32,326,-745,258659
10,-3,144,413,-723,258667
-205,81,5,343,-809,258724
-103,110,-29,309,-836,258630
-70,13,-33,327,-809,258789
-66,12,16,347,-850,258804
11,97,96,358,-770,258677
-12,110,143,375,-714,258761
-122,-6,116,344,-760,258717
30,5,119,347,-809,258806
-28,80,3,416,-737,258699
-123,52,-84,404,-689,258678
59,9,144,361,-702,258670
-84,-49,184,459,-848,258593
-49,46,88,381,-776,258700
-56,110,-50,374,-701,258683
-40,13,9,452,-699,258672
17,-22,151,480,-869,258749
-96,3,77,373,-867,258768
-80,30,61,334,-784,258753
-30,-24,89,365,-713,258794
-30,-70,86,383,-806,258768
-67,9,27,308,-811,258774
-23,13,27,354,-777,258744
-34,-55,82,467,-747,258697
-13,-63,110,399,-752,258654
-59,-24,59,434,-777,258701
-68,3,29,375,-761,258698
-57,-57,62,408,-812,258709
-42,-82,79,321,-816,258618
-48,-38,-27,368,-788,258658
-30,-30,18,435,-742,258719
-24,-78,138,474,-738,258683
-151,-99,39,403,-775,258631
-30,0,31,341,-762,258562
-87,-20,-67,344,-776,258703
-50,-92,59,408,-797,258684
-15,-64,130,443,-786,258725
-105,-34,-3,328,-836,258593
-89,-33,-51,362,-715,258621
13,-58,5,357,-749,258753
-46,-86,38,377,-819,258694
-89,-24,-23,391,-794,258587
-13,-5,39,412,-776,258714
-77,-73,20,402,-824,258748
-26,-24,12,395,-839,258705
-8,19,46,382,-765,258735
-32,15,72,390,-726,258696
-20,18,124,382,-826,258726
-76,-3,58,324,-786,258843
-95,29,3,394,-696,258763
-130,23,34,394,-748,258781
-41,70,24,349,-729,258695
-26,99,89,421,-692,258747
-146,15,32,430,-761,258680
-66,35,40,373,-827,258760
-25,96,119,427,-789,258761
-137,58,-93,323,-792,258731
-94,76,-123,362,-755,258721
-47,70,52,368,-772,258665
-111,6,-42,445,-795,258714
43,129,84,447,-795,258806
-127,81,21,402,-755,258821
-46,-4,-36,329,-726,258709
35,87,191,350,-742,258745
-76,38,-24,360,-765,258744
25,94,-9,377,-779,258699
-39,21,121,311,-753,258792
-67,-43,-3,408,-817,258810
17,113,61,362,-744,258681
-20,58,-26,359,-735,258666
-38,-53,-11,377,-748,258817
26,21,203,466,-807,258664
1,45,103,398,-847,258691
-94,21,-19,341,-725,258831
26,-11,83,339,-811,258680
-22,-51,149,373,-776,258705
-78,50,29,349,-727,258730
-118,2,1,287,-732,258746
-28,-115,75,262,-741,258694
-55,-38,61,328,-764,258673
-51,87,-40,359,-778,258709
5,102,-36,334,-760,258743
-102,-107,132,407,-821,258813
-10,-128,212,569,-828,258818
-68,65,95,420,-774,258656
3,54,-57,378,-723,258846
104,-91,94,373,-761,258724
-3,-144,132,316,-750,258731
-93,-55,-128,355,-724,258751
-84,-23,-103,416,-728,258709
-50,-230,-51,377,-700,258751
-13,-181,137,357,-825,258716
-66,3,-120,397,-826,258809
5,46,-108,404,-706,258796
-49,-116,41,394,-771,258798
67,-95,185,386,-848,258841
-183,52,167,363,-772,258672
-38,104,-92,360,-773,258688
27,49,71,326,-727,258613
-70,23,27,453,-789,258677
-97,98,15,399,-743,258726
-176,130,28,385,-727,258732
-30,-5,-23,358,-814,258704
0,18,-34,407,-832,258691
-94,116,-173,451,-760,258730
-88,75,63,329,-751,258772
-14,62,223,398,-798,258701
-139,-35,117,384,-828,258701
25,70,-36,343,-790,258763
-49,91,-62,393,-736,258729
-72,4,41,387,-749,258868
1,146,192,323,-789,258749
-131,93,-24,363,-751,258804
-52,28,-77,347,-770,258728
42,27,141,330,-811,258747
-19,19,46,341,-786,258732
-30,152,105,324,-746,258746
-50,39,30,376,-716,258675
-119,-65,38,388,-788,258606
26,104,249,447,-769,258833
-86,14,55,522,-679,258738
-111,-10,13,397,-756,258662
91,15,59,375,-797,258744
-9,38,23,341,-745,258687
-181,73,-73,315,-713,258676
-24,-13,92,383,-753,258774
-61,-47,121,353,-770,258705
-106,104,-6,418,-776,258669
-24,134,-84,401,-701,258768
-49,-10,-58,383,-735,258731
-57,-62,151,341,-803,258769
-32,77,136,436,-804,258801
-82,149,8,384,-777,258698
-19,19,-51,349,-765,258734
15,-50,95,293,-812,258741
-119,-2,-87,331,-773,258771
9,158,17,335,-725,258722
-3,1,50,471,-756,258783
-125,-119,30,437,-776,258738
-42,23,68,391,-803,258671
-88,43,-21,383,-748,258710
-108,-50,51,307,-793,258624
-24,-33,143,360,-887,258706
-145,11,-10,381,-861,258769
-83,66,-103,374,-797,258654
16,-55,155,357,-762,258733
-63,-127,93,380,-786,258698
-142,7,92,312,-778,258688
-99,48,-48,354,-652,258807
-72,-8,19,360,-656,258767
-89,-109,89,317,-782,258798
-75,-14,30,392,-798,258714
-145,20,-17,397,-692,258641
8,-31,65,441,-743,258773
-44,-57,163,433,-777,258702
-94,-38,24,342,-770,258788
-60,-1,122,388,-756,258911
-56,-32,16,416,-721,258811
-18,26,87,347,-802,258678
-112,47,-50,316,-766,258721
-40,17,-71,368,-726,258712
-30,-7,145,423,-760,258688
67,-4,124,396,-794,258773
-154,43,65,326,-807,258758
-58,29,-21,298,-757,258818
-16,-22,67,415,-774,258810
-61,19,-47,356,-810,258745
-7,70,9,359,-797,258766
-17,-7,114,325,-811,258819
-76,-53,114,402,-787,258660
16,67,139,368,-766,258674
-30,128,-86,344,-747,258712
-96,10,-63,294,-763,258658
-32,-29,103,357,-713,258637
-77,50,30,299,-795,258640
-130,148,-42,352,-705,258643
-66,54,-103,317,-654,258648
25,-20,104,354,-700,258683
-9,23,102,415,-806,258785
-107,73,-3,324,-703,258669
-58,15,-8,379,-705,258715
-40,-14,17,407,-750,258768
-119,27,-43,407,-741,258739
-61,70,-29,397,-722,258697
-43,6,102,442,-723,258762
-64,-61,147,416,-804,258729
-64,64,132,342,-847,258623
-80,90,-29,356,-649,258666
-4,-10,39,329,-669,258747
15,-13,80,432,-772,258878
-117,61,79,366,-830,258775
-48,71,-17,336,-771,258669
-17,-42,30,363,-776,258725
2,-75,99,382,-817,258588
-13,32,30,414,-830,258733
-24,30,85,321,-732,258792
2,-83,63,390,-739,258731
-62,-71,44,390,-782,258705
-63,33,-35,342,-780,258630
-73,48,-80,312,-767,258680
-26,-59,64,416,-845,258743
45,-49,168,438,-883,258713
-17,40,50,384,-804,258704
-34,57,-6,314,-755,258697
40,-17,59,377,-830,258668
-83,-64,-37,384,-844,258703
-72,68,24,371,-736,258715
-37,17,-35,442,-710,258772
-116,-128,40,351,-796,258750
17,-65,179,371,-802,258667
-121,12,27,352,-704,258704
-141,24,-58,296,-737,258747
23,-51,131,394,-758,258785
-164,-74,53,389,-805,258709
-201,97,23,326,-773,258729
-90,127,13,346,-658,258616
-160,-8,-24,471,-713,258652
-18,-9,161,439,-796,258747
-74,40,43,402,-814,258733
-168,55,-26,297,-784,258830
-4,8,137,317,-741,258793
-150,-64,24,411,-835,258751
-139,123,-18,370,-828,258604
-87,130,-25,376,-775,258687
-54,-24,20,361,-776,258703
9,-20,219,344,-864,258668
-73,23,61,273,-787,258759
-26,84,-28,332,-790,258692
8,-39,64,395,-793,258653
-19,-136,19,389,-838,258736
-79,30,116,371,-773,258737
-109,27,-121,339,-697,258766
84,-4,132,342,-740,258808
-1,-129,86,456,-839,258734
-17,-35,-8,395,-766,258763
-29,61,75,367,-699,258721
62,-70,-23,506,-716,258775
12,-38,249,293,-842,258739
-90,-40,-108,358,-848,258772
-88,66,-50,314,-729,258765
33,-13,69,417,-784,258770
-30,-98,26,434,-770,258770
8,53,163,365,-754,258841
39,52,-8,396,-665,258856
-88,-7,7,290,-783,258670
-3,18,64,300,-751,258762
-75,49,97,347,-807,258734
-137,81,-65,304,-734,258683
54,34,-15,367,-713,258655
-64,-39,-111,383,-742,258775
-43,34,19,318,-737,258777
-79,37,107,362,-844,258732
7,8,105,417,-777,258704
-11,-19,168,341,-786,258739
-131,21,-251,353,-736,258749
-62,110,-72,263,-734,258722
-110,-36,10,473,-730,258813
49,-25,150,423,-826,258838
-49,76,237,333,-746,258737
-54,-37,-182,414,-797,258804
89,4,138,389,-726,258733
-176,-79,21,378,-789,258736
-79,27,-108,405,-715,258663
-114,132,200,408,-741,258703
-66,-180,-92,445,-775,258703
100,17,107,422,-783,258760
-109,65,74,421,-781,258692
-103,-86,-176,305,-759,258775
169,55,437,348,-772,258740
-132,-157,52,481,-843,258793
-106,49,-174,327,-713,258837
7,152,92,400,-653,258734
-150,-233,-124,406,-798,258715
45,37,174,318,-768,258634
-109,86,59,445,-800,258716
-49,9,-69,396,-736,258805
-8,90,295,327,-740,258708
-138,-102,-8,413,-895,258719
-124,185,-43,296,-792,258703
-107,160,76,334,-740,258793
-137,-128,-51,396,-698,258798
7,83,241,287,-786,258729
-153,17,2,362,-776,258694
-103,14,-12,271,-682,258722
63,0,239,346,-812,258686
-91,-151,15,385,-873,258778
-114,111,0,329,-796,258721
-138,40,-90,381,-747,258738
-77,-108,12,431,-800,258734
2,-3,70,420,-757,258776
-86,17,-48,399,-728,258644
-9,39,8,444,-726,258673
32,-75,83,412,-747,258714
5,-93,93,350,-841,258729
-107,116,-92,441,-801,258800
-30,72,29,332,-788,258581
-26,-82,101,405,-807,258706
-22,-29,107,416,-812,258782
-97,52,-12,487,-730,258732
-6,63,-96,471,-697,258758
10,-43,67,379,-729,258782
-22,-55,159,347,-830,258774
-172,16,35,435,-822,258799
-186,57,-40,345,-786,258620
8,-28,-26,329,-758,258690
-101,-75,-89,393,-852,258662
-101,68,9,336,-902,258610
-102,42,32,344,-718,258588
57,16,136,391,-749,258714
-67,15,133,316,-826,258670
-48,57,-4,409,-804,258768
-82,179,88,435,-727,258726
-81,62,45,396,-816,258759
23,5,21,358,-860,258708
-73,57,-9,352,-788,258837
-8,37,0,355,-823,258819
0,72,70,459,-793,258802
-74,29,103,358,-825,258717
-83,-36,8,393,-775,258857
-106,78,9,329,-723,258840
-123,-24,62,336,-813,258833
33,-5,21,368,-755,258796
-12,24,194,419,-777,258785
-54,-66,15,379,-773,258810
64,91,148,292,-783,258724
-25,44,156,425,-870,258690
85,60,-71,446,-773,258847
-114,96,112,378,-726,258734
-129,-43,-134,416,-765,258838
-24,35,153,392,-755,258763
-88,-45,46,416,-773,258783
68,-67,0,358,-757,258775
-42,27,93,366,-760,258733
8,16,-39,439,-780,258764
7,85,133,324,-822,258736
-78,18,-27,385,-836,258956
-113,-57,25,387,-789,258669
117,76,53,379,-727,258739
51,21,71,321,-708,258701
55,42,77,351,-770,258716
78,51,192,405,-819,258870
-163,-2,30,363,-782,258812
-42,54,-17,325,-777,258699
-56,-68,-10,443,-763,258783
-3,-17,-122,442,-743,258675
-82,30,124,356,-809,258705
-71,69,32,432,-825,258694
-15,38,269,363,-711,258680
-116,-82,-41,375,-804,258686
-75,18,-104,386,-845,258723
-211,18,-135,349,-780,258795
-91,33,-114,394,-819,258695
-139,46,159,355,-772,258749
-181,-11,-229,422,-755,258626
-131,21,-88,280,-806,258649
49,8,41,406,-808,258720
-40,-35,198,394,-789,258669
-189,37,110,304,-768,258773
-39,50,95,357,-720,258768
-158,-22,23,443,-766,258707
-119,-30,-105,442,-847,258824
-103,48,32,416,-778,258771
-133,35,-112,421,-770,258758
-45,-59,183,307,-714,258735
52,4,141,484,-791,258828
-38,-18,91,381,-805,258742
-62,39,-4,332,-829,258765
60,9,93,468,-771,258800
-70,-56,80,415,-860,258617
-53,60,-1,409,-735,258670
-52,42,79,358,-681,258549
3,48,84,347,-755,258695
-8,36,259,347,-793,258768
-32,8,66,407,-758,258721
-81,30,109,420,-736,258678
-116,-4,-48,406,-747,258843
4,41,110,350,-705,258708
-224,-32,-24,339,-779,258716
14,-60,90,356,-792,258737
71,-21,232,412,-815,258661
-74,-12,-103,378,-727,258725
65,48,131,331,-760,258703
-114,-5,2,460,-811,258762
-8,27,194,294,-830,258643
39,120,161,405,-812,258651
-40,64,20,452,-778,258700
-81,-8,-7,342,-720,258607
184,82,50,451,-721,258662
-125,39,-67,506,-734,258727
-28,70,-111,519,-720,258683
3,-36,228,398,-708,258693
-136,-74,-24,443,-813,258729
-25,150,-5,335,-793,258741
-60,23,-213,456,-688,258858
-41,-66,-61,416,-769,258724
-23,-45,106,377,-821,258849
-12,26,-76,327,-846,258721
-159,32,-151,385,-769,258599
62,-26,26,371,-791,258708
-86,-34,12,329,-798,258777
-127,176,-52,253,-776,258710
-113,86,13,417,-696,258687
-38,-25,150,434,-820,258693
-118,-71,192,359,-895,258752
-26,81,-108,458,-818,258679
-108,57,-93,368,-721,258663
-102,-149,101,375,-754,258772
-50,-89,212,352,-856,258692
-145,43,90,374,-816,258713
-199,-10,-97,342,-748,258810
8,-110,81,388,-824,258745
-133,-60,55,366,-922,258786
-53,96,-24,325,-746,258766
-80,66,29,394,-777,258745
-154,-139,139,367,-834,258763
-28,11,332,352,-756,258538
-240,82,13,417,-796,258769
-160,84,-20,337,-770,258827
14,-93,210,356,-736,258689
-83,-41,217,435,-854,258755
-166,112,9,354,-767,258795
16,100,24,334,-744,258783
-143,-94,15,353,-805,258730
-38,-16,176,381,-819,258684
-132,131,-10,366,-816,258663
-97,90,19,375,-799,258811
-37,-91,83,418,-799,258741
22,-8,46,365,-800,258733
-96,114,0,284,-762,258765
13,66,-158,429,-727,258723
28,-71,169,360,-781,258685
-88,-69,-38,458,-752,258686
35,148,51,312,-783,258825
-62,66,-69,425,-741,258746
51,-27,12,358,-804,258784
86,-5,125,347,-795,258685
36,94,-124,352,-765,258628
-10,59,-34,280,-735,258667
133,-43,50,421,-778,258850
-57,-53,77,382,-817,258777
-44,45,-163,366,-773,258817
71,41,-1,376,-706,258784
-102,-117,-153,421,-759,258693
59,0,98,309,-758,258698
-128,8,-70,436,-752,258680
17,-20,3,332,-735,258792
-41,-116,139,350,-743,258802
40,-43,-55,476,-773,258824
-144,38,103,414,-808,258507
-9,-24,-37,369,-774,258774
-45,-82,195,364,-738,258731
-57,-38,-11,393,-797,258714
-6,3,-23,327,-800,258649
-3,-49,116,397,-743,258820
32,-70,126,395,-773,258704
-134,-49,64,337,-818,258644
11,33,8,352,-779,258717
-87,-62,38,432,-797,258781
-5,-97,93,422,-869,258722
16,-12,178,392,-820,258772
-149,-7,-6,322,-794,258755
34,4,83,350,-727,258681
39,-7,192,403,-807,258769
-250,-60,-38,404,-703,258752
13,113,131,382,-715,258700
-30,38,139,430,-759,258704
-151,-23,27,362,-767,258735
-83,60,26,388,-747,258582
13,57,47,464,-746,258667
-101,39,28,383,-791,258701
-9,21,72,378,-819,258769
-130,3,65,360,-783,258712
-112,43,17,354,-803,258695
-16,59,104,305,-727,258728
-123,32,8,373,-691,258688
-152,10,-39,391,-767,258781
-28,40,9,371,-772,258670
52,94,5,425,-786,258689
-110,56,1,424,-758,258716
-51,7,66,306,-762,258635
-38,-14,68,369,-733,258647
-54,47,-4,353,-843,258801
-27,53,-58,358,-790,258827
-93,7,-44,403,-814,258795
-94,-20,-49,367,-830,258653
57,17,49,397,-764,258771
-81,39,42,343,-699,258771
-115,-23,40,339,-702,258696
-3,-45,88,346,-791,258743
-115,-30,70,372,-780,258716
-93,-15,-6,378,-840,258656
-92,10,-44,387,-810,258745
-83,-19,-1,330,-781,258672
5,-27,32,324,-774,258729
-110,56,9,311,-728,258753
-127,46,23,351,-780,258631
-51,29,105,384,-743,258796
-97,35,171,382,-801,258840
-104,28,22,464,-757,258841
-100,88,-41,380,-723,258844
-92,27,-67,374,-798,258761
34,21,84,351,-841,258721
-106,23,75,427,-766,258753
-53,3,69,357,-727,258830
35,13,149,411,-708,258758
-29,-42,108,436,-771,258781
-43,4,8,390,-799,258764
-14,27,-10,384,-824,258758
-27,-47,-16,355,-773,258783
48,-29,105,365,-800,258680
3,-52,105,430,-782,258753
-9,-11,70,335,-724,258680
3,-3,117,372,-808,258818
-4,-34,42,369,-797,258880
-150,-7,-36,332,-747,258705
-11,11,-29,367,-762,258830
-44,3,65,410,-746,258816
-156,-7,25,431,-791,258648
16,81,112,398,-815,258690
-67,57,129,454,-767,258832
-132,-35,22,408,-806,258753
-42,-9,147,408,-779,258662
-85,44,-12,336,-786,258685
-120,76,-21,321,-771,258649
6,66,22,354,-732,258903
-117,0,0,353,-796,258649
-50,77,69,346,-821,258686
-15,87,24,391,-749,258672
-90,-1,6,331,-705,258676
-5,-3,95,331,-729,258754
-90,-3,-2,380,-741,258617
-79,62,-20,406,-707,258738
-39,36,53,356,-778,258674
-52,-12,29,341,-838,258614
-35,46,88,313,-826,258633
-17,48,63,419,-823,258713
-66,9,76,429,-743,258712
-8,15,63,380,-755,258656
-39,21,19,366,-743,258571
-126,29,-89,368,-728,258636
32,40,18,322,-763,258673
-1,-5,45,340,-810,258775
-98,-2,-23,290,-792,258794
-41,2,79,363,-730,258745
-16,7,102,448,-708,258829
-98,-38,-6,379,-743,258695
9,8,93,381,-790,258590
-214,-16,-117,403,-804,258755
-48,50,41,370,-800,258698
4,86,97,346,-780,258620
-138,26,-31,359,-722,258767
-63,46,149,317,-768,258807
21,64,85,370,-772,258797
-124,36,1,389,-798,258727
-93,41,-56,331,-760,258660
-81,6,-31,346,-782,258761
-61,44,86,468,-773,258772
-11,58,118,357,-776,258651
-195,-31,-38,358,-810,258779
-15,6,92,336,-765,258726
1,5,137,460,-780,258668
-106,3,33,401,-766,258755
-3,36,112,432,-717,258792
-8,-48,107,487,-752,258715
-40,-18,105,367,-805,258754
32,101,61,357,-833,258818
-4,14,8,375,-793,258749
-66,-68,17,369,-795,258806
-10,-52,134,345,-832,258721
-63,36,-18,403,-755,258638
-85,54,-42,396,-748,258721
-67,-24,58,335,-774,258717
-98,-28,17,369,-798,258732
-83,57,1,338,-746,258711
1,84,13,343,-716,258688
-81,-9,71,285,-785,258700
-29,-7,96,384,-780,258762
49,115,102,395,-764,258723
-128,84,-108,339,-722,258691
-23,39,58,316,-772,258646
33,29,131,401,-726,258726
-174,45,2,362,-719,258729
-54,94,-29,372,-767,258763
-54,6,4,374,-745,258855
-166,-121,-6,398,-784,258676
-73,-51,91,402,-823,258709
-193,-84,-49,401,-770,258798
-99,-64,-34,391,-828,258775
59,-6,73,379,-875,258678
-77,32,-63,350,-822,258696
-116,72,30,342,-706,258729
-26,-6,73,390,-772,258738
-62,-45,61,411,-821,258704
52,81,103,343,-832,258700
24,59,66,368,-693,258711
-60,30,52,361,-712,258728
-16,-31,91,374,-802,258722
-107,-40,-49,388,-769,258754
-146,-21,-64,340,-778,258620
-57,-21,24,370,-783,258674
8,9,83,428,-762,258685
-82,-16,17,368,-861,258566
26,50,85,350,-848,258583
-61,35,124,361,-741,258657
-81,30,84,315,-762,258542
-39,68,92,400,-753,258724
-87,58,-44,440,-798,258705
43,103,72,337,-788,258727
39,56,170,448,-757,258731
-101,-25,83,383,-805,258682
-67,23,110,382,-819,258711
-28,35,-69,470,-717,258752
-67,37,-49,383,-724,258654
39,-14,40,322,-731,258877
-90,-66,116,260,-778,258818
-64,-20,141,218,-829,258580
41,-10,25,322,-761,258745
40,-53,28,389,-739,258718
85,-65,64,485,-728,258760
-107,-29,88,348,-829,258747
-50,23,-11,302,-762,258689
-3,10,10,381,-749,258576
-34,-70,-48,434,-855,258800
-7,4,-3,370,-786,258767
-68,25,-1,378,-768,258706
36,-36,70,449,-779,258733
-28,-60,57,348,-708,258679
-39,6,-27,471,-745,258716
-144,28,-23,394,-802,258683
-111,23,-67,384,-739,258741
-73,24,112,382,-801,258604
-94,30,-15,379,-815,258708
-120,71,-13,345,-821,258832
-62,32,10,317,-797,258720
-71,-47,-25,368,-813,258869
-155,-45,-51,302,-804,258675
8,75,-22,314,-732,258747
-126,48,-20,330,-712,258757
-25,27,-21,371,-715,258653
-69,-12,61,421,-733,258615
-43,-35,25,393,-683,258666
-59,-9,121,344,-654,258661
-27,-38,48,326,-730,258782
-54,-7,23,353,-769,258655
-63,15,10,394,-802,258735
-34,36,44,429,-777,258755
-89,10,78,406,-727,258776
46,22,188,353,-767,258731
-134,-49,83,315,-759,258697
14,10,29,388,-750,258639
-48,-8,29,447,-736,258641
77,36,162,369,-763,258684
-171,-15,67,422,-739,258725
4,68,113,323,-723,258664
-60,53,57,365,-655,258727
-66,-28,-50,417,-818,258648
-64,8,24,348,-801,258800
-46,-3,18,340,-791,258736
-61,-7,106,367,-706,258784
-133,-16,-10,396,-769,258787
-48,-4,8,344,-726,258838
-81,6,8,357,-763,258770
-47,28,23,406,-745,258726
-81,-14,81,354,-749,258706
67,19,186,455,-786,258785
-70,-84,72,408,-771,258726
129,15,117,325,-790,258714
-10,-51,43,384,-785,258743
-19,-84,20,382,-781,258727
-50,-61,71,379,-840,258746
11,-16,27,447,-827,258883
-62,-20,-29,383,-813,258769
35,-50,-28,376,-843,258830
-39,-43,-20,428,-765,258676
-8,4,-18,404,-908,258776
3,26,103,353,-799,258742
-70,-33,50,371,-776,258719
-57,35,34,353,-774,258697
5,63,16,479,-754,258783
-55,50,7,508,-834,258754
-122,-29,-30,423,-774,258842
33,23,86,403,-751,258733
-86,68,13,436,-792,258716
-119,33,-67,335,-742,258712
-64,62,-11,381,-696,258802
-100,32,41,428,-708,258791
-210,53,42,368,-733,258656
-70,114,72,314,-759,258657
-137,1,14,431,-733,258788
-66,-11,19,329,-741,258762
-26,36,85,353,-777,258697
-162,40,-67,378,-625,258704
-106,-2,54,368,-663,258753
-110,-47,23,426,-734,258693
-120,43,46,350,-752,258752
-72,82,4,383,-702,258726
-32,-8,96,326,-705,258728
-145,-110,111,315,-768,258699
62,32,140,389,-738,258679
-111,52,68,388,-712,258729
-68,-29,-116,381,-753,258728
-44,-46,131,315,-816,258732
-79,43,4,414,-836,258779
-166,96,48,316,-744,258625
-46,32,39,314,-715,258706
19,-40,102,327,-726,258762
-208,-14,-79,408,-765,258625
58,160,-89,354,-698,258637
-73,49,27,368,-634,258844
-41,-11,13,447,-801,258754
-91,48,220,267,-812,258647
-92,142,-86,333,-747,258795
-61,91,-7,331,-718,258675
96,-46,96,482,-782,258596
-40,-20,118,358,-862,258683
-148,96,43,331,-816,258730
116,122,71,426,-763,258739
-141,-53,55,388,-745,258763
-19,17,-33,399,-736,258712
-15,128,84,437,-764,258677
-71,19,-7,500,-716,258799
6,-114,161,362,-800,258709
66,-62,143,405,-834,258709
-121,35,-126,333,-748,258747
-6,43,-36,272,-726,258734
16,-120,123,391,-740,258689
-52,-114,233,322,-798,258696
-139,53,10,327,-765,258747
5,46,30,361,-729,258793
-19,-130,67,369,-726,258772
-3,-95,87,316,-806,258666
-100,45,55,290,-853,258738
-66,10,50,373,-718,258857
-88,-111,190,420,-844,258771
-18,-32,112,406,-864,258746
-115,120,18,339,-880,258711
-177,68,-92,401,-753,258736
27,-36,166,375,-791,258691
-58,-37,145,404,-813,258702
-96,130,4,406,-707,258755
-130,143,-35,374,-727,258744
-24,30,42,408,-747,258852
-116,-9,82,387,-813,258650
-65,125,7,428,-804,258609
-101,103,59,403,-748,258701
-104,-57,-23,400,-785,258640
81,-8,121,389,-870,258666
-58,74,-58,416,-798,258737
-101,47,-191,353,-710,258726
31,41,109,330,-730,258650
19,-91,203,356,-773,258793
-173,-44,-3,338,-783,258711
41,70,-40,322,-716,258671
0,-73,-78,403,-748,258678
-22,-103,-35,395,-830,258599
-38,-38,57,383,-816,258683
-1,10,98,476,-817,258813
-29,-26,134,397,-793,258815
17,-4,11,366,-772,258756
-42,16,-60,416,-787,258678
-170,-16,-145,381,-795,258716
80,0,181,337,-826,258686
20,-21,183,413,-794,258726
-67,-11,38,396,-740,258813
-19,36,65,349,-718,258679
-56,34,-15,372,-676,258622
-91,23,39,374,-721,258728
-17,40,33,369,-741,258705
-131,-12,37,312,-784,258652
-10,51,-5,340,-829,258739
120,114,112,402,-799,258713
-124,-33,67,409,-824,258680
-58,-43,134,302,-858,258744
-44,65,102,345,-795,258668
-41,105,-114,395,-812,258765
-18,64,120,347,-813,258693
-100,-107,93,330,-802,258721
-74,-9,124,315,-788,258756
-102,77,-143,356,-694,258806
15,57,-143,393,-696,258733
-35,7,84,474,-765,258696
-59,-28,136,470,-762,258711
-208,61,84,307,-768,258680
-146,36,-158,315,-765,258828
36,3,50,342,-797,258739
-140,-57,-6,375,-761,258677
-64,17,41,432,-764,258655
-176,9,-22,318,-735,258841
-34,6,-51,336,-803,258808
-98,26,77,378,-764,258680
-41,45,30,422,-785,258739
-169,-22,87,420,-772,258688
-21,-70,41,404,-777,258802
-67,-40,-37,324,-819,258827
-59,20,-151,378,-763,258703
8,0,76,423,-787,258695
-188,-115,76,434,-779,258774
-38,42,114,324,-798,258781
-78,74,-101,388,-776,258575
-92,21,-122,356,-765,258641
-160,-66,46,296,-756,258673
84,65,215,352,-720,258792
-128,77,73,325,-726,258735
-13,37,-29,333,-776,258682
2,-53,124,394,-768,258685
32,42,143,444,-794,258886
-87,69,168,355,-806,258909
-61,-21,34,392,-717,258763
-32,-23,143,313,-778,258656
-18,15,23,340,-822,258723
0,108,56,317,-748,258726
-100,-22,-12,461,-724,258753
-31,-60,116,267,-751,258681
-21,31,61,381,-775,258780
-46,116,30,389,-724,258789
-132,2,3,387,-654,258828
2,-44,192,316,-766,258752
-178,-51,26,319,-732,258709
36,129,17,427,-775,258741
-16,-10,-34,440,-757,258729
87,-4,137,390,-718,258714
-78,67,9,439,-729,258756
18,221,-49,429,-783,258751
-52,59,12,425,-755,258781
-37,-76,97,419,-730,258743
-13,-18,95,398,-811,258777
-52,86,-125,453,-779,258735
-90,-44,-160,391,-830,258768
56,-76,58,394,-789,258635
-53,-57,104,378,-856,258745
-87,65,36,339,-721,258850
-47,-30,70,384,-732,258715
-26,-91,102,449,-824,258775
-147,14,-25,351,-848,258674
43,105,-38,359,-781,258671
-92,-14,-39,453,-720,258689
-43,-102,82,342,-812,258556
-84,-2,99,302,-827,258658
-30,84,43,337,-748,258737
-184,-30,1,344,-647,258749
67,-67,179,428,-777,258833
-181,-47,-51,386,-754,258787
31,75,-93,343,-753,258680
10,-22,24,409,-775,258647
-48,-102,-43,415,-783,258704
-29,33,43,318,-799,258733
62,115,-24,356,-689,258716
-157,-16,29,326,-761,258732
56,-32,89,359,-796,258715
-32,21,90,371,-745,258661
-64,-8,-147,384,-751,258682
-26,-3,15,251,-806,258623
36,-41,40,382,-780,258676
-121,11,88,361,-750,258746
-64,36,19,428,-740,258724
-95,-15,62,401,-790,258668
-86,-43,100,466,-767,258653
-74,-24,90,393,-784,258692
-74,1,-40,329,-792,258732
18,38,25,320,-740,258746
27,-11,73,366,-733,258765
-57,63,55,382,-814,258784
-17,59,88,363,-808,258690
-30,19,119,410,-802,258856
-41,-31,46,401,-752,258795
42,53,47,416,-741,258682
-17,20,-52,357,-703,258804
59,-11,168,375,-750,258780
-8,-14,101,404,-850,258684
-33,106,-8,333,-768,258616
4,74,-38,312,-693,258816
-9,-16,108,397,-708,258751
-106,-50,103,315,-773,258703
28,113,60,347,-790,258680
-94,60,-92,415,-780,258747
-51,-21,-55,375,-843,258767
21,-6,86,406,-831,258766
-68,41,23,406,-750,258753
-123,11,3,367,-783,258741
-41,-52,85,354,-771,258645
-50,-39,103,350,-767,258620
-94,39,-31,359,-744,258728
-18,49,-5,400,-749,258811
-149,-77,-29,418,-769,258804
-101,-9,3,323,-865,258790
-13,60,91,396,-824,258767
-150,14,-76,400,-791,258821
-141,-51,90,316,-864,258699
10,-12,124,363,-821,258730
-157,27,19,394,-736,258748
-110,13,-17,380,-803,258735
-93,-29,-10,327,-727,258601
-80,2,12,328,-839,258697
-15,76,41,391,-791,258724
-122,52,-23,378,-757,258748
-130,-29,118,307,-799,258686
-28,-9,163,362,-819,258715
-144,4,-7,339,-802,258675
-23,28,-32,387,-772,258621
-60,-27,32,448,-799,258757
-74,-43,28,414,-771,258816
-93,72,19,384,-834,258638
38,16,92,409,-778,258855
-197,-77,117,335,-833,258824
-4,7,198,322,-840,258692
-124,36,94,394,-759,258664
-12,26,55,422,-692,258708
-99,-45,105,422,-791,258727
-43,-16,25,382,-842,258587
-85,76,56,269,-768,258757
-2,-54,109,383,-772,258789
-99,-47,152,345,-826,258627
-56,32,150,330,-806,258786
-60,98,27,363,-722,258767
-45,28,-30,371,-681,258680
29,-31,-8,424,-767,258641
65,63,30,444,-794,258710
-11,101,-5,363,-757,258682
47,49,85,391,-789,258752
-23,-39,130,433,-801,258667
-86,-47,-7,344,-799,258683
18,81,25,350,-774,258789
-79,-29,-67,408,-700,258759
-78,-80,10,392,-768,258628
12,16,62,452,-870,258596
-162,91,-78,407,-768,258671
-71,69,-29,290,-755,258713
10,-31,126,384,-808,258749
-166,-81,114,382,-843,258790
-91,88,52,311,-761,258641
-52,92,21,281,-673,258781
-141,-19,-91,262,-782,258678
-97,-26,18,329,-837,258705
-33,106,67,401,-847,258823
-115,139,45,398,-817,258782
-62,43,184,359,-755,258694
-90,-31,137,352,-839,258748
-159,7,-12,337,-757,258680
-18,98,-64,385,-727,258707
-16,43,17,431,-693,258716
-101,-34,43,419,-729,258727
-44,46,74,338,-758,258618
-83,84,-2,355,-751,258675
-84,36,29,355,-766,258735
-49,-30,83,380,-710,258737
-56,-5,59,418,-777,258790
-64,59,35,389,-812,258759
-38,22,-36,358,-693,258804
-37,5,-23,380,-769,258746
-26,39,-16,441,-821,258786
-69,19,31,428,-841,258750
-5,-1,163,412,-775,258739
-90,-50,137,349,-777,258691
-78,-39,-7,443,-818,258647
51,50,24,403,-713,258774
-52,0,-28,375,-710,258781
-53,-2,8,388,-758,258742
56,17,136,424,-737,258645
-1,-36,81,401,-781,258681
-76,-12,48,316,-806,258643
4,-1,91,377,-806,258614
-96,-49,13,332,-774,258753
0,-15,70,327,-782,258719
-11,-25,84,398,-806,258786
-97,1,-9,379,-735,258705
-11,23,3,348,-716,258655
49,3,115,391,-743,258729
-144,-69,-21,390,-804,258780
-34,8,47,325,-819,258727
51,34,146,407,-733,258832
-164,-63,32,380,-773,258811
-76,23,30,364,-783,258750
-16,83,-40,399,-706,258719
-166,38,-70,407,-758,258729
25,2,133,341,-793,258780
-82,13,89,402,-820,258782
-151,42,-29,358,-737,258668
-39,23,-35,389,-698,258781
-11,-29,-7,454,-716,258797
-57,17,1,368,-791,258623
-52,77,-48,370,-763,258703
-56,47,-42,398,-805,258745
31,-22,34,350,-874,258830
40,4,93,402,-757,258748
-117,-1,-33,388,-771,258795
-25,4,64,438,-803,258773
62,-39,170,472,-825,258824
-61,-14,30,430,-810,258701
-86,70,-111,395,-768,258603
-4,52,-67,414,-705,258605
11,-7,98,364,-787,258648
-72,-12,134,326,-745,258814
-86,24,58,332,-726,258762
-148,-21,-6,340,-748,258738
-15,-35,4,342,-742,258728
-77,19,6,337,-756,258752
-73,59,55,311,-754,258791
-169,20,-5,294,-816,258776
7,34,118,374,-804,258783
-33,26,98,440,-760,258764
-99,22,64,380,-807,258678
-112,-29,56,352,-801,258617
-4,-22,136,376,-769,258740
-103,6,0,457,-737,258757
-105,50,-78,450,-847,258716
-19,36,11,454,-801,258719
-46,-63,124,374,-745,258797
-63,11,199,331,-824,258687
-9,36,174,361,-791,258724
-88,-42,28,395,-786,258707
6,-36,94,441,-795,258760
-52,0,24,491,-844,258739
-119,82,-55,399,-801,258686
33,68,33,357,-843,258727
-29,-27,66,398,-764,258707
-3,12,107,387,-782,258570
25,79,87,393,-783,258657
-76,21,-9,300,-734,258710
-84,-64,-13,334,-826,258780
4,-25,27,377,-782,258781
-59,70,-44,412,-755,258856
-50,77,-55,376,-768,258881
-15,-19,31,409,-812,258740
-30,-52,75,422,-800,258806
-71,7,42,365,-815,258805
1,50,50,383,-767,258694
-29,-33,32,374,-782,258740
-84,-12,-27,396,-814,258787
-64,73,-98,370,-849,258730
-7,126,-69,397,-819,258797
-8,21,56,312,-780,258783
-5,-42,121,352,-831,258763
-36,7,72,356,-772,258791
-30,43,23,342,-670,258790
-16,-9,33,386,-764,258694
-75,-40,63,366,-810,258682
-112,-19,-29,329,-796,258718
0,56,34,390,-837,258708
21,7,87,387,-767,258738
-60,-75,77,351,-798,258693
-7,-38,149,335,-815,258825
-69,-36,60,395,-763,258778
-56,-21,-20,339,-715,258709
-77,-10,-69,371,-798,258721
-44,-10,-2,390,-786,258686
-134,-15,-15,422,-802,258717
4,37,113,378,-740,258708
-34,2,116,489,-797,258715
-92,-44,86,429,-784,258660
22,-28,162,396,-793,258646
-45,-6,66,430,-779,258762
-136,27,-106,378,-807,258736
8,63,-31,379,-816,258813
-12,-6,23,386,-752,258851
-59,-1,33,373,-786,258771
68,49,136,305,-697,258783
-82,-47,39,353,-778,258808
-27,-69,83,276,-827,258760
10,-14,63,369,-796,258816
-140,21,-77,342,-811,258609
-109,13,-58,382,-738,258653
16,7,46,415,-736,258595
-47,10,22,422,-810,258763
-92,27,-49,350,-810,258788
14,32,86,379,-775,258761
-137,-35,26,404,-733,258758
-85,19,52,306,-824,258597
-142,41,-41,410,-809,258707
-205,18,-143,366,-803,258726
-18,37,63,297,-860,258781
-8,44,132,422,-770,258755
-102,48,99,333,-784,258698
-44,61,82,366,-847,258722
3,1,47,416,-857,258814
-63,-24,37,380,-815,258791
-92,21,-50,428,-782,258749
-186,53,-133,308,-735,258805
59,63,60,294,-689,258759
-91,-20,-9,364,-757,258707
-101,-23,13,357,-783,258750
31,-9,173,441,-756,258796
-61,-79,72,353,-775,258735
-8,-33,26,335,-763,258631
-33,11,-25,445,-743,258709
-71,-15,5,464,-805,258712
-52,37,29,327,-765,258673
88,82,116,324,-806,258683
-78,-51,34,326,-733,258778
-19,-51,110,302,-699,258717
65,5,201,389,-815,258671
-77,36,39,390,-697,258757
-117,0,-47,376,-728,258716
-54,-68,19,319,-781,258671
-46,-9,63,362,-788,258714
-34,31,91,363,-784,258777
-33,-27,100,339,-767,258783
-106,-68,101,377,-786,258676
-41,-46,47,398,-802,258742
-18,75,-57,357,-820,258757
-99,50,-101,400,-816,258792
-31,49,-3,367,-752,258678
-101,88,42,354,-819,258641
-19,138,96,359,-806,258782
-82,80,26,413,-746,258769
-19,4,114,440,-712,258673
-68,11,102,447,-847,258758
-92,75,-19,334,-780,258630
-124,50,-42,379,-740,258677
-104,-22,-9,375,-802,258723
-100,-16,39,405,-784,258805
-18,101,74,385,-740,258705
-17,124,97,431,-700,258779
-60,25,96,384,-740,258773
56,33,155,344,-835,258667
-68,30,26,486,-762,258906
-135,30,-51,361,-793,258749
-4,71,58,386,-684,258681
-90,20,47,367,-769,258741
-53,55,24,372,-785,258811
-63,32,50,351,-820,258794
-28,-8,95,439,-799,258761
-86,-56,104,343,-777,258730
-67,-62,83,359,-811,258714
-174,17,-92,312,-815,258676
-58,65,-56,343,-915,258619
-18,40,26,348,-773,258774
-131,-23,92,375,-835,258816
-106,-33,160,376,-782,258797
-51,5,158,397,-795,258692
-39,1,19,379,-769,258698
-72,-3,-7,369,-757,258714
-97,-18,34,379,-837,258678
-155,5,68,375,-825,258669
-47,72,81,415,-829,258627
-88,17,26,439,-767,258748
-50,-54,132,362,-771,258734
-53,-37,124,324,-810,258739
-70,2,32,393,-716,258702
-62,11,-36,416,-715,258721
-86,-39,-16,394,-739,258723
-97,-11,42,329,-729,258771
-79,61,37,370,-729,258727
-46,10,24,391,-721,258759
-28,-26,66,403,-773,258782
56,-19,189,403,-770,258848
-21,11,148,418,-745,258834
-59,7,17,310,-743,258691
3,-47,-46,336,-775,258795
-72,-14,-134,327,-800,258711
-58,61,-56,350,-789,258748
-5,58,87,411,-772,258707
-19,-19,249,362,-766,258733
-53,-48,208,365,-849,258667
-15,73,6,330,-804,258691
-22,52,-156,382,-755,258702
-51,-57,-90,420,-694,258693
-117,-26,9,357,-738,258616
-101,105,91,333,-786,258727
-67,97,79,379,-759,258793
-18,-37,136,350,-714,258759
-7,-48,107,409,-789,258660
-77,43,-19,356,-706,258594
-112,34,-73,327,-684,258632
-88,-6,6,372,-700,258701
-30,-11,106,342,-748,258680
-146,66,20,372,-726,258708
-141,71,-22,355,-752,258675
-18,-9,77,398,-758,258686
0,-53,105,341,-850,258643
-38,-12,81,370,-801,258690
-114,23,-52,360,-809,258715
-15,25,-31,348,-728,258817
-31,-3,-12,403,-862,258726
-105,46,-93,366,-795,258742
-51,89,46,357,-755,258730
42,26,207,359,-738,258747
-62,-38,153,414,-767,258707
-3,2,75,360,-789,258664
-88,9,-90,436,-769,258654
-80,-28,-29,440,-805,258715
-13,13,105,383,-783,258745
-138,74,-27,360,-712,258755
-103,93,-53,309,-697,258736
47,68,64,395,-813,258808
39,19,132,346,-813,258661
-38,82,36,351,-762,258633
-32,92,-26,407,-757,258740
-44,19,-49,392,-780,258749
-33,31,-14,314,-808,258697
-48,76,-14,391,-777,258700
-173,59,-31,434,-739,258786
40,1,201,374,-807,258845
-9,-38,164,435,-807,258758
-54,0,-32,379,-744,258768
-40,-24,-83,367,-770,258759
-9,-89,13,413,-784,258755
-67,-38,68,440,-762,258766
10,54,118,368,-740,258778
-76,-8,29,388,-800,258829
-28,-115,110,341,-871,258666
101,-93,196,421,-837,258754
-55,-33,25,413,-812,258805
-41,-64,-30,348,-784,258815
-11,-106,-10,359,-767,258765
-53,-51,-26,380,-773,258709
-58,106,-94,432,-735,258818
-3,78,25,429,-719,258797
-34,-82,144,388,-714,258629
1,-35,212,330,-793,258613
-13,50,60,342,-745,258784
-65,43,-66,369,-711,258881
-59,-38,-112,384,-749,258838
-109,-22,-136,387,-760,258835
-4,100,3,391,-776,258693
-102,33,44,381,-769,258753
18,-22,216,385,-755,258787
4,-5,190,413,-777,258742
-55,39,-17,378,-728,258733
77,63,-2,310,-716,258681
46,-29,63,339,-822,258609
-82,-26,28,326,-879,258735
-64,85,-3,333,-811,258716
-4,82,-3,421,-738,258793
-64,4,32,455,-810,258831
-3,6,128,388,-883,258638
-26,59,114,375,-875,258621
-88,43,-9,278,-773,258667
-36,24,-7,383,-738,258677
-115,56,-87,410,-820,258634
-157,71,-105,309,-763,258696
-59,73,48,365,-732,258833
-24,4,189,384,-756,258808
-128,1,99,427,-816,258731
-72,55,2,402,-788,258749
-11,38,36,389,-835,258824
-110,-34,-8,350,-878,258698
-73,28,8,310,-736,258821
-103,59,23,387,-650,258741
-97,15,18,435,-692,258654
53,3,184,391,-759,258729
-61,-10,62,353,-806,258767
-151,-16,-104,357,-781,258567
116,-29,83,402,-716,258626
-39,-56,74,366,-777,258707
-170,-14,-36,298,-722,258694
-29,73,-46,393,-745,258634
-19,-19,57,430,-720,258714
-35,-89,117,440,-829,258703
7,-33,152,375,-837,258617
0,-47,111,369,-770,258764
3,-121,60,345,-845,258675
-50,-78,-8,439,-761,258753
-101,-3,-101,391,-780,258747
-120,-11,-85,410,-739,258705
-30,-81,96,438,-799,258712
-16,-68,166,400,-822,258757
-80,6,94,302,-765,258668
-68,-38,30,447,-750,258671
23,-56,85,457,-843,258775
-96,-65,14,409,-825,258729
-135,21,-111,350,-727,258751
-90,45,-42,305,-752,258859
-46,-49,98,416,-756,258813
-71,-12,122,443,-854,258749
-79,55,89,431,-775,258655
-73,-5,43,444,-711,258784
18,-49,123,339,-743,258657
-36,-11,28,367,-794,258748
-134,76,-69,360,-795,258765
-58,18,-16,403,-701,258748
-35,-20,143,415,-794,258811
-23,-16,141,421,-795,258668
-96,34,20,404,-739,258726
18,0,98,346,-744,258852
-17,-87,99,390,-817,258737
-47,1,58,424,-799,258746
-96,108,-71,374,-714,258737
-91,69,-51,334,-734,258681
19,21,101,436,-789,258637
-47,31,84,427,-794,258699
-96,90,32,345,-697,258796
-12,44,45,385,-745,258832
-55,-21,0,398,-812,258814
-71,57,-105,368,-820,258675
-28,131,-111,327,-793,258724
-123,58,-68,372,-783,258709
-38,16,85,378,-796,258706
-26,54,133,426,-760,258800
-90,70,-9,410,-806,258793
-17,49,17,448,-745,258697
9,-16,68,394,-782,258781
-45,3,16,358,-841,258680
-124,67,-89,503,-741,258707
-49,70,19,439,-713,258762
-69,-3,57,394,-714,258744
8,65,156,387,-757,258730
-8,79,77,445,-781,258690
-98,22,0,399,-795,258663
-10,-13,56,427,-793,258762
-36,46,-18,410,-778,258804
-93,75,-94,363,-750,258726
-44,90,24,398,-739,258771
-59,38,70,291,-826,258831
-78,59,71,374,-819,258670
65,36,178,378,-754,258705
-41,-72,66,349,-776,258694
-32,-55,-1,358,-763,258684
3,14,-24,435,-703,258711
-167,-31,-88,479,-752,258689
-74,-24,94,446,-789,258760
-18,5,190,408,-841,258726
-71,5,111,345,-808,258765
3,17,124,384,-795,258765
71,-29,216,374,-779,258729
-49,-43,149,347,-802,258707
-15,38,100,342,-807,258732
-80,3,-9,473,-754,258729
-61,-15,-26,407,-788,258667
39,34,111,377,-786,258671
-135,16,-20,338,-776,258728
-71,15,12,333,-762,258722
-20,-41,166,410,-706,258689
-170,-73,-16,344,-765,258716
-69,43,-87,291,-785,258646
-84,41,-69,398,-745,258696
-229,-70,-108,451,-759,258701
-70,36,123,420,-798,258650
-94,25,119,474,-813,258777
-212,-77,10,392,-831,258670
38,-63,208,445,-838,258697
-115,-39,28,491,-795,258750
-125,67,-35,368,-849,258640
-62,47,30,430,-741,258772
-98,-72,59,468,-750,258680
-157,-13,37,388,-771,258743
-12,97,27,388,-821,258738
-145,-35,9,411,-709,258666
-100,-66,94,379,-775,258692
-4,52,174,304,-775,258610
-172,102,-105,352,-733,258707
-88,91,-47,337,-734,258692
36,8,120,499,-758,258762
-130,58,27,419,-776,258810
-82,141,55,285,-774,258744
18,46,81,414,-697,258740
-127,-82,110,476,-751,258605
15,19,94,395,-831,258799
-127,90,-66,317,-733,258792
-144,0,-144,321,-732,258746
109,-3,155,313,-805,258595
-163,-16,37,350,-769,258715
-125,90,28,306,-760,258733
90,29,252,400,-805,258780
-66,-128,92,378,-807,258796
-20,-17,152,359,-830,258685
-51,43,-48,376,-726,258671
-18,-33,80,377,-824,258798
-20,-49,150,407,-776,258734
-29,42,10,364,-685,258642
-110,85,-3,386,-698,258707
52,-23,67,398,-752,258913
-1,-116,245,392,-833,258768
-112,0,-55,412,-791,258702
-5,118,-100,379,-766,258791
-33,0,-100,479,-712,258742
33,-10,56,429,-839,258659
-126,-17,55,379,-825,258754
-50,74,-35,355,-791,258882
-81,-43,10,397,-741,258842
113,-18,30,352,-768,258661
-100,22,-87,393,-765,258660
15,83,-25,468,-692,258718
-23,21,112,446,-758,258802
-47,6,25,366,-798,258740
-71,73,29,301,-828,258797
-63,73,-33,391,-722,258878
-117,-16,84,418,-716,258808
14,33,191,417,-776,258770
-143,10,-6,362,-753,258692
-92,0,-78,323,-772,258827
-14,55,-8,357,-760,258694
-51,51,-55,461,-724,258747
-59,108,67,343,-751,258613
-51,-16,53,399,-699,258781
-60,-39,146,432,-847,258790
60,34,156,474,-838,258794
-28,39,48,379,-780,258705
-77,-35,-89,418,-732,258799
58,18,32,326,-755,258766
-52,63,5,343,-758,258645
-70,140,-13,324,-789,258717
-45,-27,100,318,-746,258770
-32,-88,112,472,-737,258779
-111,-1,-29,408,-768,258692
12,83,-59,415,-761,258705
-68,-58,-45,417,-733,258781
-45,-95,84,393,-722,258697
-56,52,52,397,-693,258705
-66,100,-85,371,-682,258739
-73,-67,-2,410,-735,258695
-8,-134,134,489,-837,258757
-93,-45,78,423,-850,258637
-45,111,15,325,-756,258630
-12,-3,-10,348,-761,258746
-35,-133,51,338,-845,258641
-50,-5,31,445,-849,258625
-96,90,-60,405,-776,258696
-28,37,36,359,-749,258794
2,-109,199,436,-770,258710
-110,-93,51,340,-798,258599
-18,106,-32,330,-703,258691
-15,45,-87,448,-706,258679
-50,-72,-30,311,-854,258772
-51,14,42,388,-813,258752
2,139,20,425,-801,258795
-105,75,9,406,-729,258746
95,-38,221,391,-778,258736
-123,-19,101,409,-815,258643
-101,67,-68,452,-783,258754
36,47,9,354,-776,258731
-3,-31,27,407,-747,258667
-36,26,80,371,-860,258614
5,119,39,377,-742,258715
-89,-2,25,421,-762,258744
55,-110,112,376,-779,258744
43,22,135,372,-798,258869
-145,7,-41,423,-713,258838
23,22,-22,295,-712,258765
19,-53,103,414,-718,258769
-10,-23,48,524,-811,258757
-37,78,57,436,-795,258714
20,14,85,439,-820,258832
-97,-122,97,304,-892,258611
47,-41,170,293,-691,258698
-104,23,-4,333,-724,258822
-102,21,-83,372,-701,258697
-1,-49,39,478,-737,258658
-54,-44,62,413,-809,258805
-100,55,-29,356,-772,258687
-23,30,54,337,-825,258712
-78,-78,114,429,-771,258800
-111,-91,76,378,-830,258679
-41,24,16,344,-793,258649
-100,6,-96,345,-732,258742
-66,-30,-2,369,-708,258695
-22,20,8,388,-794,258742
-61,75,31,374,-765,258728
-118,46,-27,349,-677,258764
-12,10,167,369,-786,258777
-107,2,73,398,-819,258820
-72,112,-2,366,-844,258860
-72,51,-24,373,-782,258715
-31,47,-23,375,-749,258760
-80,72,101,333,-780,258724
-107,94,-82,374,-772,258755
-81,54,121,373,-707,258630
-13,-69,117,443,-763,258661
-129,-15,100,305,-849,258642
-115,56,-100,405,-795,258788
-23,25,-9,357,-766,258774
-101,-46,-15,371,-790,258770
-73,49,27,399,-772,258717
-69,97,-67,402,-721,258779
-8,50,33,427,-751,258669
-29,-81,176,421,-748,258672
-68,8,98,331,-792,258744
-119,59,-18,318,-679,258689
46,46,37,395,-725,258606
-113,-107,-8,422,-838,258712
6,14,45,328,-791,258701
-33,93,15,421,-783,258687
-27,-9,112,454,-708,258719
-32,-127,215,311,-829,258760
-38,-66,110,299,-782,258780
-141,9,-60,314,-716,258759
28,47,4,400,-710,258751
-112,-95,-9,414,-746,258756
-72,2,8,358,-718,258787
-21,52,113,351,-811,258818
-90,-12,95,378,-804,258741
-58,-67,141,358,-840,258796
-7,-52,93,477,-856,258769
-99,-31,9,350,-761,258740
-68,2,-10,348,-773,258661
-7,16,63,292,-776,258712
-122,-1,-76,348,-786,258720
-26,28,32,317,-750,258689
10,17,101,455,-767,258941
-106,10,101,436,-721,258772
-51,23,91,374,-677,258758
-81,37,33,343,-724,258798
-96,35,-78,353,-762,258750
26,121,26,359,-852,258749
-100,53,-57,381,-864,258750
-46,42,39,240,-844,258563
113,60,190,325,-760,258815
-80,49,72,352,-797,258717
-123,9,-12,316,-823,258657
29,39,81,407,-778,258804
-127,-36,-27,454,-775,258791
-31,85,9,372,-797,258711
-57,98,-29,371,-739,258730
-14,43,62,351,-740,258761
-18,-4,137,335,-798,258667
56,46,230,400,-811,258659
-246,38,-44,401,-776,258646
58,58,55,300,-736,258643
-110,-43,-27,437,-803,258692
-129,12,-187,398,-794,258693
-20,101,-36,399,-745,258812
-23,17,-11,397,-733,258803
-122,-84,144,340,-793,258673
3,-53,150,362,-824,258651
-114,-14,6,372,-788,258668
-90,-36,-110,351,-711,258703
35,-35,56,358,-796,258710
-97,-70,11,431,-750,258709
-56,-5,71,366,-737,258796
26,-4,82,395,-785,258743
-15,-40,110,343,-753,258774
-7,-48,123,404,-771,258613
-99,-16,50,380,-774,258661
-79,-1,9,324,-774,258748
-56,31,-1,434,-799,258720
-99,-5,-90,391,-829,258733
-46,86,-35,317,-766,258648
-68,63,-18,406,-773,258763
-56,52,121,319,-836,258763
-55,21,170,394,-736,258752
-111,-17,110,358,-791,258699
-157,-16,-53,319,-849,258706
-17,34,4,376,-795,258776
-133,13,-87,382,-734,258707
-64,41,15,349,-805,258623
-34,16,156,368,-759,258755
-53,-28,177,361,-786,258811
-81,-18,114,337,-775,258754
20,-4,137,374,-737,258667
-168,-82,-46,378,-807,258668
-64,-9,19,347,-816,258709
25,43,137,395,-729,258718
-129,12,15,441,-757,258655
-14,17,130,299,-730,258683
36,12,94,362,-809,258750
-119,-22,46,346,-831,258606
0,6,137,330,-809,258677
-40,-7,116,400,-715,258759
-117,8,-44,352,-812,258689
-52,107,-140,340,-775,258662
-1,80,-74,441,-762,258732
-87,13,36,383,-795,258732
-7,-12,252,332,-814,258683
-161,-42,81,348,-771,258866
-101,6,-4,325,-905,258782
65,23,79,419,-762,258787
-159,-35,-61,425,-784,258820
-199,66,-71,388,-832,258734
18,108,57,433,-833,258775
25,38,57,432,-747,258725
-45,8,59,453,-751,258769
26,11,74,442,-762,258776
-84,-40,48,405,-718,258835
-33,-88,114,340,-709,258816
-30,-12,-13,333,-716,258673
-141,34,-138,384,-751,258711
-10,37,15,322,-805,258852
-35,-4,128,376,-900,258789
-2,-12,148,331,-847,258690
-22,50,119,282,-768,258771
-145,-17,18,354,-745,258728
-80,1,46,311,-783,258709
-55,63,30,390,-781,258681
-253,36,-210,328,-733,258731
-90,83,-58,330,-689,258636
-4,-5,116,463,-753,258678
-120,-26,130,455,-745,258772
-44,25,155,378,-765,258741
-129,21,-36,389,-721,258674
-38,55,77,279,-696,258504
78,76,105,369,-714,258666
-173,55,15,347,-797,258721
-59,65,-26,349,-752,258719
48,88,100,353,-751,258703
-14,21,46,365,-754,258691
10,-26,154,323,-697,258767
-69,-70,160,352,-705,258704
-56,23,56,344,-776,258785
-50,15,-110,394,-754,258755
42,-3,-119,496,-757,258767
-151,-144,-89,492,-775,258698
73,-8,118,426,-796,258682
9,30,146,409,-785,258791
3,-92,80,345,-738,258716
58,-157,200,357,-834,258740
-31,-72,73,376,-840,258755
-146,59,-192,332,-781,258641
-2,70,-87,282,-632,258680
-37,-116,15,323,-750,258721
-36,-23,143,380,-874,258602
-95,150,23,383,-830,258570
-42,95,9,346,-794,258732
-119,-90,50,333,-754,258730
-4,-46,102,351,-804,258643
-194,97,-91,403,-755,258663
-73,140,-157,357,-697,258717
-34,10,36,359,-757,258701
-35,-15,25,432,-815,258784
-115,91,9,265,-757,258632
85,68,112,347,-776,258757
-26,-49,175,379,-766,258749
7,-9,126,420,-767,258762
-70,164,-127,440,-708,258619
-50,130,-123,360,-763,258659
13,8,69,389,-787,258632
26,-2,141,417,-797,258530
-53,71,29,361,-823,258748
64,48,17,315,-733,258874
6,-39,88,380,-804,258740
29,-14,102,401,-775,258846
-182,52,-96,411,-691,258576
-61,36,-136,332,-760,258626
-4,23,15,398,-833,258660
10,24,47,441,-843,258774
-72,41,104,395,-806,258830
-6,-13,117,345,-676,258855
20,-58,223,358,-791,258674
-47,-15,37,409,-819,258646
-70,21,-76,350,-756,258684
-57,-31,-57,406,-769,258733
-31,-8,52,411,-877,258687
-53,68,41,418,-734,258730
-15,64,54,401,-747,258821
15,-91,93,356,-735,258821
-1,-116,176,333,-850,258637
-33,25,-1,424,-824,258637
-70,86,-61,410,-757,258711
-46,-36,-59,397,-822,258735
12,-59,122,349,-839,258785
-45,83,30,328,-765,258766
15,112,24,353,-706,258712
26,-92,70,421,-724,258759
-11,-156,188,416,-834,258641
-83,17,28,356,-812,258638
-118,85,-87,368,-674,258757
-65,-36,-91,359,-736,258613
-127,-136,-40,389,-839,258668
-54,37,-41,350,-762,258845
-50,91,-49,410,-735,258738
47,-98,109,419,-739,258617
-13,-181,220,405,-807,258754
-81,-8,5,322,-862,258733
-120,154,-139,386,-779,258774
-72,21,-101,375,-758,258754
-97,-108,15,376,-863,258768
-60,60,93,411,-817,258601
-87,149,10,420,-725,258738
-50,17,77,375,-750,258732
28,-82,220,458,-853,258695
-134,-16,69,412,-836,258501
-168,149,-139,381,-734,258733
-62,126,-91,381,-690,258733
-77,-15,23,393,-808,258733
-99,49,66,437,-815,258685
-103,162,64,408,-766,258751
-28,68,127,411,-711,258835
-18,-64,223,378,-746,258775
-46,-31,174,364,-852,258726
-187,88,-91,464,-770,258654
-30,65,24,449,-772,258672
-91,-67,87,354,-805,258817
-144,-74,83,339,-790,258721
-43,63,112,425,-727,258645
-11,-22,140,400,-768,258736
-132,-113,123,360,-847,258728
6,-33,155,388,-852,258713
-155,5,-51,395,-757,258778
-151,0,-138,347,-720,258660
42,-22,-2,327,-892,258626
-15,-19,-5,405,-858,258770
-77,23,33,418,-751,258771
45,8,146,360,-788,258717
-70,-53,106,442,-812,258697
17,-10,25,402,-816,258701
-27,52,-32,361,-702,258682
-118,24,-134,357,-692,258740
-61,59,14,310,-738,258753
-27,56,27,357,-816,258698
-109,67,-3,340,-775,258597
73,28,179,355,-725,258751
-16,-29,234,384,-763,258703
-110,-16,39,383,-655,258613
-51,112,-44,410,-755,258758
-2,61,-48,452,-702,258727
-186,-2,-46,381,-792,258613
-4,41,100,362,-806,258580
-55,21,53,412,-773,258850
-52,-45,84,375,-821,258786
20,-50,164,390,-784,258722
-55,-45,56,411,-719,258817
-128,-8,-37,329,-754,258753
38,-33,20,335,-697,258593
-82,-39,16,416,-761,258715
-39,-3,16,397,-862,258767
-28,31,41,386,-798,258706
21,11,149,435,-671,258796
-88,-14,112,358,-768,258754
65,29,154,393,-774,258654
-138,2,6,407,-748,258749
-33,24,89,316,-762,258720
-119,38,-7,351,-747,258739
-12,73,25,420,-790,258768
-111,14,-48,432,-809,258696
96,-33,245,390,-801,258726
-108,-53,161,400,-806,258727
-70,7,64,316,-783,258745
-90,-15,-79,341,-748,258748
-74,-29,-35,367,-771,258729
-66,27,-51,397,-804,258668
-100,123,3,335,-724,258705
-22,-10,117,366,-621,258732
-65,-109,199,425,-820,258730
20,-25,117,437,-811,258658
-131,84,-135,399,-770,258623
-30,52,-78,403,-710,258681
-66,-36,61,433,-799,258656
-90,43,43,378,-842,258620
-149,151,-50,307,-801,258585
-36,65,14,287,-735,258702
-49,-46,160,392,-799,258786
-57,-20,138,336,-826,258721
-122,95,46,376,-780,258674
-61,65,5,297,-658,258795
-122,-38,12,371,-694,258811
-114,64,-49,361,-819,258673
-92,117,-124,362,-747,258808
-39,43,-18,374,-772,258719
-31,-88,106,357,-814,258569
-29,-5,191,397,-790,258719
-166,53,-58,383,-785,258702
3,1,-1,398,-765,258751
-75,-113,14,354,-812,258665
-125,-20,5,308,-817,258635
-16,109,45,347,-831,258836
-63,20,90,336,-790,258718
-54,-132,185,406,-791,258718
14,-9,181,425,-821,258659
-113,55,-33,281,-792,258623
-56,4,-7,283,-713,258731
25,-76,117,373,-750,258780
-170,-40,-7,303,-933,258768
-84,91,-72,372,-716,258683
-37,-15,-23,344,-742,258780
13,-173,163,416,-784,258749
-27,-79,159,302,-797,258615
-84,51,-9,322,-733,258687
-89,15,-67,360,-727,258685
58,-51,78,334,-757,258626
-79,-20,81,399,-804,258656
-126,109,-18,340,-770,258754
-21,34,118,370,-781,258595
64,-95,278,480,-721,258756
-139,-122,28,406,-840,258851
35,79,2,351,-800,258776
-73,34,-29,430,-719,258761
14,-44,79,324,-789,258726
-83,23,16,408,-835,258777
-80,170,-133,435,-756,258794
-39,84,-40,397,-640,258647
122,36,151,395,-750,258714
-56,-17,114,421,-853,258728
-57,92,30,396,-795,258719
8,56,-16,359,-667,258651
-6,-6,-45,322,-773,258605
-42,8,-81,350,-829,258622
-52,75,-57,391,-774,258707
-24,39,85,363,-786,258695
25,16,158,378,-817,258705
7,23,122,352,-920,258730
-82,81,-14,266,-822,258649
-84,19,-54,318,-765,258641
-44,29,17,303,-810,258643
-134,77,-44,375,-723,258737
-51,122,-8,374,-706,258694
-96,87,91,382,-719,258687
-67,1,155,389,-780,258660
-103,58,69,338,-750,258669
15,81,27,403,-742,258653
-160,-46,-20,356,-776,258701
-90,-26,7,360,-778,258763
-71,77,-29,351,-824,258680
-28,48,-12,348,-735,258754
-71,-66,19,389,-716,258779
-51,-81,115,372,-735,258751
39,38,145,354,-788,258841
-153,-53,-19,376,-720,258854
26,-41,66,361,-811,258722
-58,-33,-4,451,-782,258737
-121,25,-102,387,-751,258730
-17,27,50,342,-720,258716
-10,-75,135,417,-759,258724
-27,-69,169,383,-845,258788
-45,28,27,437,-841,258786
-56,-1,-35,533,-777,258791
-16,-28,34,439,-734,258843
21,3,68,389,-810,258677
-194,56,-89,378,-743,258665
1,79,-46,333,-712,258677
73,41,107,494,-733,258735
-57,1,110,417,-760,258737
-119,40,11,342,-790,258718
57,42,103,346,-787,258749
-13,-20,23,407,-774,258698
-76,-45,-27,374,-751,258682
-70,21,-78,355,-754,258703
-99,19,-49,368,-791,258772
88,-50,208,405,-742,258779
-66,-100,139,407,-818,258786
-106,-67,3,363,-789,258813
16,4,6,301,-736,258798
31,-23,-11,434,-781,258691
-89,-36,-52,397,-793,258803
38,56,96,450,-816,258757
-54,7,96,427,-756,258751
3,-8,199,345,-783,258615
-17,14,52,391,-808,258662
-41,8,3,516,-660,258614
-66,-15,13,448,-759,258656
-10,-22,99,387,-824,258684
-93,41,46,345,-833,258740
-155,68,-135,433,-755,258725
-25,48,-40,394,-742,258776
-55,41,75,405,-783,258840
-32,16,142,406,-717,258755
-46,21,161,375,-737,258755
-56,-3,29,410,-732,258813
-49,-25,-47,407,-760,258706
18,41,-22,391,-889,258665
-57,14,-63,403,-790,258694
-21,22,107,301,-812,258725
18,-16,188,264,-869,258708
-91,-51,63,324,-879,258719
-19,40,-40,316,-835,258760
63,46,2,381,-792,258685
-85,-8,-20,361,-803,258660
-46,3,13,357,-823,258864
-19,34,4,354,-827,258786
36,68,6,363,-729,258754
-121,20,-8,370,-764,258647
-31,-26,54,394,-756,258741
-15,-3,144,418,-835,258795
-103,-1,8,381,-808,258700
-44,60,-59,303,-694,258634
-53,18,-42,364,-710,258719
-161,-42,-56,389,-770,258725
-64,72,110,351,-802,258659
-30,83,63,389,-684,258650
-148,-9,-6,389,-761,258747
23,-20,145,373,-791,258752
-70,-6,69,528,-746,258746
-184,70,-118,329,-752,258709
37,46,-26,347,-777,258749
-104,-36,59,397,-811,258723
-66,-13,35,351,-806,258795
50,119,101,335,-825,258725
-68,0,12,324,-837,258728
-27,-124,101,389,-898,258573
85,-8,217,411,-932,258705
-102,65,-47,393,-790,258731
-97,49,-94,382,-711,258610
-1,-7,49,357,-768,258635
-50,-51,117,401,-852,258762
-81,77,171,362,-802,258736
-72,5,131,359,-723,258641
-107,-114,139,395,-811,258690
-33,-102,99,396,-832,258683
-42,9,-49,327,-784,258745
-183,44,-162,375,-686,258720
-56,-57,-3,341,-690,258781
6,-44,160,419,-779,258737
-127,53,42,426,-821,258781
-64,56,-23,244,-799,258762
28,1,152,293,-811,258707
-73,-56,125,376,-816,258712
-39,86,18,295,-784,258724
-28,115,-58,380,-747,258721
-90,-25,-91,412,-787,258641
-8,-13,57,313,-805,258622
-58,87,28,387,-768,258657
-105,89,21,391,-747,258711
-28,-8,111,455,-749,258740
-9,-24,115,458,-723,258716
-44,106,-27,365,-705,258865
-127,96,-150,355,-731,258821
-38,-2,-13,390,-731,258803
-34,-26,128,320,-733,258702
-35,58,110,312,-855,258695
-106,71,83,334,-768,258757
-116,-47,47,321,-792,258703
-72,-52,64,389,-870,258627
-54,58,10,450,-828,258733
-163,52,-93,424,-725,258610
-130,4,-52,391,-693,258768
-16,3,130,370,-789,258655
-137,30,48,405,-809,258635
-191,41,-35,407,-784,258731
23,-32,189,390,-754,258775
-144,-111,130,404,-804,258810
-74,3,85,382,-778,258776
-22,55,34,347,-683,258694
-149,-74,-50,326,-735,258760
-36,-104,72,367,-773,258763
89,9,177,397,-755,258767
-202,-21,24,400,-697,258733
-44,-78,121,364,-821,258690
-21,-49,86,419,-852,258728
-79,41,-8,397,-888,258673
-3,111,10,350,-760,258729
-122,6,37,440,-861,258700
-34,-29,114,339,-791,258694
-24,87,67,357,-679,258797
-62,30,14,415,-781,258721
-104,-8,82,409,-776,258633
-92,-18,120,364,-824,258682
-111,43,-21,341,-735,258691
-42,91,-64,402,-763,258789
-64,-8,-57,410,-783,258700
-68,10,56,399,-805,258724
-78,70,93,376,-836,258693
-94,31,95,410,-707,258778
-37,-7,121,397,-784,258754
-34,-29,104,384,-800,258820
-65,26,19,363,-785,258777
-32,60,-18,350,-735,258738
-26,-10,32,390,-761,258731
-37,-23,27,372,-820,258737
-8,10,87,397,-815,258649
43,14,118,376,-740,258770
-28,-39,71,360,-774,258734
-23,-27,50,396,-801,258711
-21,54,-9,372,-785,258732
73,64,37,432,-748,258632
-20,22,-1,435,-737,258605
29,32,68,372,-742,258638
-75,22,-76,330,-749,258723
91,70,78,350,-809,258741
-22,-34,92,500,-781,258789
-220,-78,-89,299,-798,258655
54,61,-5,356,-751,258658
-83,19,-138,430,-722,258761
