Vx,Vy,Vz,Ax,Ay,Az
-121,-88,159,-100,1454,255100
-99,42,10,-78,1510,254995
-151,26,21,-114,1531,254927
-101,-131,130,-90,1481,254969
-136,-116,76,-105,1479,254991
-127,20,-51,-175,1574,255049
-99,-2,-27,-149,1589,254977
-17,-104,-41,-105,1518,254980
-29,-62,-106,-70,1486,254966
-46,49,-186,-62,1473,255048
-37,-38,-142,-68,1567,255111
-3,-209,-71,-111,1539,254981
-35,-180,-90,-88,1505,255016
-61,-75,-148,-53,1443,255087
-23,-120,-96,-53,1515,255047
11,-213,-21,-93,1528,255007
2,-100,-77,-79,1513,255018
-21,37,-167,-70,1538,254900
-26,-36,-49,-81,1543,255088
-19,-165,31,-146,1452,255024
-39,-124,-45,-61,1383,255105
-66,-38,-43,-66,1496,254986
-34,-92,44,-137,1508,255031
-11,-166,49,-136,1502,255078
-28,-31,39,-101,1497,254985
-53,115,15,-106,1471,255062
-41,43,90,-92,1512,255040
-37,-84,143,-79,1447,255121
-47,-41,80,-91,1444,255093
-72,54,4,-104,1471,255131
-32,-47,28,-167,1545,255069
-37,-108,25,-78,1445,255072
-34,30,-62,-100,1520,254963
-54,130,-137,-62,1518,255076
-37,33,-18,-73,1498,255084
-42,-68,55,-13,1442,255056
-52,-31,-71,-19,1488,254994
-63,7,-139,-85,1563,255044
-32,-135,-43,-134,1587,255043
-7,-215,56,-80,1527,254990
-34,-94,-8,-98,1453,255106
-44,-9,-67,-49,1563,255092
-45,-114,66,-106,1582,255119
-49,-162,200,-51,1472,255126
-64,-74,92,-70,1488,255106
-78,-4,52,-80,1541,255131
-30,-107,149,-89,1470,255057
5,-161,147,-105,1455,255037
-17,-21,45,-73,1462,255081
-20,72,-60,-96,1520,255026
-25,-18,67,-159,1559,254967
-59,-107,130,-98,1534,254999
-75,-14,57,-44,1516,255022
-32,12,-28,-71,1468,254994
28,-114,58,-49,1448,255028
7,-90,-8,-13,1447,255024
20,59,-62,-81,1465,255090
14,80,-137,-75,1508,255025
16,-51,-8,-88,1427,254967
-11,-74,29,-128,1428,254980
-45,30,-1,-78,1522,254985
-69,11,20,-67,1526,255004
-32,-93,93,-91,1529,255024
-10,-103,63,-105,1440,255017
-21,47,-24,-109,1503,255033
-6,71,-37,-125,1612,255010
14,-59,29,-85,1540,255088
-23,-82,28,-68,1456,255043
-46,-10,-94,-76,1472,255007
-56,-23,-80,-65,1515,255105
-28,-149,-8,-158,1482,255099
-21,-133,-64,-147,1469,255001
-54,4,-175,-82,1424,255047
-61,0,-116,-12,1455,255097
-40,-121,-32,-31,1550,255072
-101,-123,-29,-62,1431,255001
-114,-42,-124,-112,1451,255057
-102,-88,-106,-68,1440,255078
-74,-198,-16,-90,1479,255161
-91,-149,-31,-156,1548,254985
-80,-15,-173,-117,1554,254916
-85,0,-137,-193,1514,255077
-92,-99,28,-184,1452,254945
-95,-122,4,-103,1449,255052
-111,-26,-12,-97,1414,255097
-128,-80,61,-96,1476,255092
-87,-185,101,-89,1418,255002
-88,-142,10,-38,1499,254992
-92,41,2,-83,1546,255066
-82,33,36,-54,1520,254983
-65,-70,192,-84,1440,255037
-127,-19,179,-106,1411,255060
-118,75,90,-95,1468,255073
-106,5,163,-110,1581,255028
-63,-94,211,-136,1472,254962
-64,-18,141,-55,1457,254917
-47,113,3,-135,1529,255057
-43,88,25,-71,1486,255023
-27,0,125,-47,1543,255083
-68,32,135,-76,1523,254991
-76,89,56,-79,1397,255035
-61,-21,74,-108,1463,255057
-61,-128,121,-12,1443,255014
-83,-73,12,-76,1451,255092
-66,37,-131,-64,1485,255110
-94,16,-186,-73,1466,255107
-71,-49,-89,-30,1417,255082
-87,3,-80,-24,1410,254974
-74,46,-136,-93,1470,255053
-49,-54,-114,-86,1541,255160
5,-123,-34,-74,1469,255089
-16,-67,-108,-165,1422,254944
13,0,-186,-74,1480,254960
20,-52,-105,-41,1569,255016
24,-88,-21,-49,1517,254863
-2,24,-45,6,1498,255062
-14,97,-75,-113,1493,255044
7,-2,65,-126,1479,255010
28,-55,129,-111,1406,255070
18,30,22,-66,1385,255088
22,113,-55,-107,1464,255011
15,43,76,-127,1544,255079
12,-22,90,-110,1427,255113
-32,71,-2,-94,1447,255105
-71,106,-13,-89,1447,255028
-62,-14,59,-91,1499,254994
-45,-66,21,-92,1542,255020
-35,39,-52,-72,1504,254980
-12,107,-75,-127,1532,254968
7,40,-3,-91,1480,255028
-27,46,17,-86,1472,254915
-71,165,-95,-125,1460,254949
-84,137,-101,-131,1483,255014
-89,-2,15,-32,1537,255050
-85,-20,-38,-78,1457,254965
-107,81,-139,-113,1437,255036
-82,108,-124,-124,1436,255086
-76,18,-28,-81,1428,255097
-82,62,-9,-64,1503,255006
-140,152,-43,-123,1523,255082
-138,119,75,-149,1497,254923
-140,-5,196,-228,1435,255022
-148,-25,137,-113,1461,255090
-130,74,15,-88,1466,255159
-118,83,71,-141,1512,254991
-115,21,116,-103,1493,255120
-129,33,50,-113,1470,255053
-148,82,13,-92,1474,255114
-139,33,96,-67,1447,255125
-129,-60,180,-97,1465,255161
-128,-65,76,-92,1522,255049
-124,13,50,-153,1534,254985
-103,5,54,-99,1532,254997
-92,-50,128,-119,1501,254968
-124,-14,181,-113,1513,255056
-140,68,186,-127,1460,255014
-136,45,166,-144,1538,254922
-149,-38,270,-134,1490,255030
-146,-6,208,-90,1459,254927
-195,118,70,-61,1508,254967
-178,64,12,-119,1544,254980
-163,-15,-20,-99,1467,254948
-182,28,-80,-67,1445,254938
-204,100,-59,-93,1410,255043
-188,30,-39,-64,1510,255184
-158,-52,-21,-56,1477,254996
-184,-3,-55,-27,1486,254948
-186,63,-123,-98,1486,255057
-142,-1,-149,-85,1503,254977
-137,-44,-126,-142,1484,254984
-196,25,-169,-141,1513,255053
-229,83,-228,-74,1592,255018
-219,8,-170,-78,1579,255117
-199,-55,-77,-83,1479,255077
-215,9,-147,-55,1476,255011
-195,108,-232,-137,1494,254976
-135,47,-212,-84,1560,254973
-126,13,-158,-81,1493,255056
-162,99,-189,-122,1445,255079
-179,145,-182,-107,1496,255085
-151,20,-118,-72,1521,255036
-170,-40,-21,-107,1462,255040
-166,20,-35,-137,1450,255008
-150,55,-18,-141,1480,255034
-108,-12,46,-88,1481,255028
-127,-30,90,-23,1446,255008
-150,66,37,-58,1414,255122
-172,111,126,-101,1514,255008
-156,6,187,-164,1550,254991
-141,-52,225,-86,1522,255078
-152,15,188,-80,1444,255002
-159,54,227,-105,1485,255049
-98,-24,209,-96,1501,255040
-73,-22,197,-56,1509,255068
-119,100,201,-187,1438,255037
-111,126,225,-131,1519,255117
-80,3,280,-23,1483,255005
-87,-19,323,-113,1465,255033
-131,85,241,-71,1447,254957
-104,105,118,-108,1544,255068
-61,-7,131,-36,1548,255003
-66,-26,83,-80,1536,254933
-85,84,20,-71,1484,254951
-65,105,-19,-59,1529,254995
-29,-12,43,-140,1461,255120
-17,-29,-9,-188,1431,255075
3,73,-165,-43,1496,255054
26,45,-198,-57,1568,255079
70,-51,-173,-2,1490,255120
60,1,-267,-11,1448,255017
60,140,-344,-74,1533,254938
71,105,-284,-74,1572,255051
104,-1,-196,-91,1485,255015
86,41,-188,-91,1435,255045
76,127,-218,-59,1426,255063
111,57,-105,-58,1445,254988
160,-83,14,-112,1409,254958
159,-36,-102,-63,1407,255184
150,107,-111,-82,1495,255096
131,49,24,-74,1593,255136
171,-39,105,-110,1484,255071
140,5,108,-40,1497,255048
150,71,75,-116,1533,255100
196,-25,168,-55,1517,255084
207,-144,270,-78,1414,255137
174,-99,183,-163,1483,254970
166,-24,108,-146,1484,255001
149,-84,124,-89,1531,255043
166,-143,158,-69,1566,255054
123,-82,123,-48,1445,255037
136,16,63,-63,1513,255016
154,-26,110,-88,1553,254979
202,-72,78,-33,1461,254971
164,9,-1,-56,1410,254958
120,104,-56,-113,1500,254949
106,19,-53,-83,1486,255039
116,-87,-97,-114,1483,254997
35,-13,-45,-117,1487,255034
54,54,-102,-117,1535,255069
58,-41,-92,-121,1576,254948
67,-135,-76,-139,1483,255055
28,-58,-61,-79,1477,255042
2,4,-108,-93,1484,255115
-1,-93,-70,-88,1539,255112
4,-175,-20,-73,1484,254989
-18,-121,-72,-53,1508,254997
-13,-67,-105,-1,1530,254969
-29,-156,-66,-62,1501,254975
-11,-210,-52,-100,1472,255127
-58,-105,-101,-107,1449,255112
-74,-38,-133,-81,1540,254996
-72,-144,-127,-76,1554,254989
-85,-193,-19,-102,1492,255100
-130,-107,-100,-126,1449,255051
-118,-45,-89,-209,1536,255102
-128,-161,-48,-90,1598,255053
-114,-179,12,0,1534,255072
-157,-63,-18,-10,1478,255078
-179,-18,-14,-93,1524,255034
-162,-124,103,-105,1476,255188
-184,-137,145,-122,1454,255071
-239,-64,162,-66,1514,254995
-253,-42,223,-106,1525,255068
-234,-164,279,-132,1550,254974
-200,-213,211,-86,1467,254922
-285,-107,182,-85,1549,254996
-287,-76,131,-184,1527,255059
-302,-169,187,-145,1429,255047
-325,-174,183,-90,1472,254979
-373,-73,120,-71,1472,255030
-337,-48,81,-134,1451,255089
-311,-155,142,-109,1514,254912
-286,-169,49,-107,1476,254974
-300,-78,-120,-60,1535,255015
-299,-109,-71,-124,1473,255074
-298,-247,7,-103,1419,255082
-314,-250,-23,-63,1441,254983
-359,-113,-95,-63,1493,254861
-335,-88,-85,-124,1476,255033
-320,-222,-23,-101,1440,255111
-305,-210,-83,-113,1428,255077
-353,-82,-158,-119,1402,255003
-325,-92,-162,-124,1497,255040
-312,-251,-113,-91,1478,255038
-328,-212,-105,-89,1463,255006
-338,-59,-182,-45,1470,254955
-282,-111,-78,-117,1485,255086
-289,-193,47,-157,1480,255111
-295,-143,48,-119,1457,255130
-303,-46,-16,-125,1542,254978
-259,-118,44,-46,1556,255003
-233,-268,77,-39,1489,255057
-254,-199,-12,-79,1482,254947
-274,-69,-117,-87,1509,255075
-236,-133,-86,-154,1538,255048
-193,-216,11,-97,1463,255018
-206,-124,-14,-89,1444,254909
-237,13,-16,-93,1491,255019
-191,-64,21,-59,1482,254927
-178,-201,147,-101,1413,254917
-179,-147,125,-117,1425,255170
-164,-55,120,-82,1480,255009
-118,-116,146,-95,1522,255072
-110,-170,226,-96,1477,255013
-94,-50,158,-23,1433,255015
-124,90,134,-50,1496,255099
-110,9,130,-95,1492,254995
-95,-103,149,-49,1540,254933
-88,-31,104,-85,1512,254981
-105,44,74,-85,1565,255083
-54,-15,110,-125,1530,255172
-2,-75,97,-36,1512,255136
18,18,-59,-86,1457,255091
-18,114,-84,-69,1520,255072
27,10,-42,-115,1544,255094
70,-103,-60,-32,1460,254906
55,-46,-160,-89,1422,255040
65,47,-215,-98,1451,255019
110,-32,-140,-91,1550,255136
132,-111,-111,-30,1490,255077
158,-1,-264,-63,1392,255062
105,126,-227,-20,1485,255088
143,10,-158,-152,1562,255131
155,-86,-150,-141,1400,255066
129,38,-139,-87,1444,255048
130,139,-107,-26,1478,255110
167,9,4,-105,1580,255042
182,-44,83,-86,1488,255023
162,110,0,-94,1440,255026
137,177,-29,-26,1528,255133
169,68,127,-13,1597,255125
147,-1,123,-79,1484,255167
129,136,24,-91,1478,255099
129,179,13,-95,1546,255114
175,57,170,-92,1526,254920
189,43,145,-133,1461,255027
171,179,54,-122,1462,255018
168,219,34,-68,1527,255075
179,72,163,-44,1526,255017
155,19,61,-54,1479,254997
139,153,-41,-92,1449,255037
115,190,23,24,1570,255029
152,86,123,-97,1569,255085
152,96,86,-140,1517,255021
132,252,-2,-65,1535,254979
128,268,46,-93,1562,254966
146,107,66,-154,1447,254996
98,57,65,-71,1460,255018
62,146,-35,-58,1495,255094
60,137,-8,-93,1501,255110
85,46,99,-109,1505,255026
40,84,82,-85,1436,254983
33,237,-28,-52,1533,255059
16,243,59,-66,1580,254986
39,89,133,-100,1550,254970
-1,63,45,-93,1557,255000
-45,170,-27,-114,1405,255030
-40,145,-25,-94,1560,255042
-20,18,-5,-123,1500,255077
-55,89,-62,-33,1457,255037
-81,267,-163,-38,1542,255052
-90,247,-142,-144,1552,255121
-95,106,-18,-133,1512,255088
-130,110,-105,-147,1525,255012
-164,220,-169,-54,1480,254929
-156,167,-138,-103,1508,254967
-122,55,-94,-142,1499,254928
-195,127,-161,-107,1486,255075
-199,252,-164,-117,1409,255190
-203,172,-77,-83,1447,255078
-201,26,92,-110,1416,255025
-236,33,71,-127,1430,255015
-253,99,13,-53,1439,254954
-201,17,-5,-118,1439,254959
-183,-55,110,-67,1399,254937
-223,54,63,-12,1496,255050
-223,166,-84,-102,1539,254957
-242,109,-59,-148,1545,254930
-225,-3,37,-160,1493,255066
-265,-5,19,-51,1471,255088
-267,52,-2,14,1430,255064
-252,-3,45,-81,1388,255013
-233,-63,106,-46,1430,255043
-279,41,53,-10,1411,254925
-262,170,-2,-45,1509,254994
-283,119,76,-44,1499,255060
-250,18,115,-95,1486,255145
-289,11,8,-30,1488,255078
-322,58,6,-94,1504,254944
-298,-53,85,-83,1532,254999
-262,-112,117,-102,1435,255071
-313,24,48,-100,1498,255017
-300,127,-32,-129,1537,255040
-269,50,130,-137,1498,255043
-312,-20,133,48,1433,255118
-308,31,-23,-60,1479,255089
-296,58,-15,-84,1547,255138
-273,-51,72,-151,1550,255185
-218,-112,47,-135,1546,255166
-239,16,24,-75,1409,255114
-212,88,-14,-97,1482,255018
-204,-8,88,-97,1556,255059
-185,-63,153,-90,1446,254975
-226,7,54,-54,1488,255016
-211,16,50,-92,1530,255016
-194,-99,28,12,1505,255128
-164,-136,24,-19,1393,255194
-198,-8,-56,-67,1459,255115
-174,43,-61,-95,1572,255074
-194,-40,75,-74,1537,255015
-188,-80,106,-62,1460,255071
-177,-25,-11,-133,1450,254984
-165,-20,3,-91,1511,254990
-106,-145,29,-111,1579,255016
-71,-155,5,-77,1530,255047
-96,0,-78,-73,1504,255064
-58,63,-80,-50,1524,255144
-36,-38,52,-60,1484,255186
-15,-87,63,-127,1474,255073
-45,0,-43,-92,1438,254937
-40,16,-5,-35,1491,255018
14,-103,-12,-48,1507,255085
37,-106,-103,-67,1476,255040
31,-6,-169,-70,1497,254994
44,24,-180,-75,1481,255116
60,-49,-120,-110,1490,255027
40,-56,-47,-62,1432,255104
36,-3,-53,-79,1479,255091
58,-44,-36,-51,1544,255141
96,-174,71,-65,1518,255127
113,-159,-1,-50,1446,255100
111,-12,-75,-61,1506,255039
149,-10,-134,-75,1534,254997
179,-85,23,-124,1549,255026
160,-59,13,-77,1497,255013
128,32,-15,-65,1518,255021
165,-45,-49,-80,1490,255240
197,-164,94,-114,1513,254953
184,-155,59,-96,1468,255093
182,-28,-3,-137,1531,255055
190,-27,46,-83,1560,255072
204,-111,172,-58,1484,255104
182,-96,109,-159,1473,255074
153,-18,26,-111,1521,255096
163,-81,82,-20,1550,255060
175,-165,100,-88,1522,255003
184,-141,73,-32,1460,255003
194,-14,-51,-44,1520,254983
209,-29,47,-136,1549,255040
199,-122,120,-151,1473,255069
145,-89,61,-86,1399,255035
117,-40,-31,-55,1603,254978
103,-112,62,-91,1569,254995
108,-210,50,-117,1587,255082
107,-140,-64,-41,1469,255111
74,-20,-89,-62,1553,255011
107,-48,-105,-83,1479,255010
95,-139,-92,-44,1505,255097
68,-85,-80,-3,1500,255123
18,-53,-145,-101,1467,255096
49,-170,-203,-57,1513,255104
54,-278,-203,-53,1476,255036
40,-174,-217,-46,1497,254958
8,-67,-254,-66,1492,255029
33,-101,-222,-80,1482,254935
8,-100,-27,-160,1442,254946
-44,7,-15,-77,1374,255037
-77,72,10,-17,1541,255047
-62,-68,97,-105,1591,255019
-72,-160,194,-123,1546,254964
-61,-99,50,-124,1444,254979
-68,-37,-4,-115,1500,254909
-63,-127,77,-126,1485,255001
-78,-221,221,-137,1490,255180
-130,-166,144,-101,1544,255056
-153,-155,74,-79,1504,255083
-150,-277,201,-59,1515,255060
-132,-360,166,-48,1478,255052
-131,-249,8,-28,1491,255058
-142,-149,-20,-52,1518,255020
-123,-228,17,-88,1522,255028
-138,-240,69,-98,1506,255059
-199,-134,66,-85,1489,255098
-246,-115,96,-57,1555,255099
-239,-222,169,-62,1482,255073
-232,-221,174,-85,1417,254995
-223,-119,27,-100,1411,255001
-223,-101,33,-193,1468,254975
-199,-192,44,-171,1504,254886
-217,-182,90,-107,1488,255014
-223,-81,24,-78,1538,255057
-255,-85,50,-93,1537,255060
-247,-169,117,-122,1469,255025
-258,-110,69,-156,1498,254934
-300,30,8,-129,1523,255013
-307,39,24,-1,1553,255014
-265,-53,68,-6,1485,255099
-302,-30,56,-121,1489,254994
-322,50,2,-91,1416,255055
-334,24,-34,-11,1491,255073
-299,-74,0,-121,1528,255040
-324,-69,-86,-144,1459,255039
-292,26,-186,-114,1494,254990
-289,-16,-207,-95,1496,254962
-226,-92,-205,-58,1519,255089
-263,-67,-198,-65,1503,255058
-268,5,-225,-67,1510,255065
-273,-76,-169,-84,1536,255058
-246,-169,-98,-85,1486,255072
-257,-105,-130,13,1454,255145
-247,18,-199,-33,1499,255178
-243,10,-106,-60,1460,255054
-187,-36,-45,-107,1448,255047
-229,16,20,-112,1511,254944
-265,91,31,-153,1514,254975
-275,12,106,-88,1499,255071
-251,-110,162,-59,1464,255056
-254,-53,138,-132,1461,255002
-230,81,7,-187,1537,254995
-214,70,4,-58,1506,255059
-176,23,48,-103,1476,255020
-199,122,28,-113,1452,255119
-236,217,11,-168,1470,255147
-234,138,116,-106,1528,255032
-213,48,219,-54,1487,255039
-232,124,130,-24,1452,255080
-204,213,28,-9,1439,255098
-173,146,50,-75,1532,255103
-144,105,104,-130,1471,255032
-150,180,11,-90,1467,255106
-145,222,41,-38,1586,254973
-120,111,180,-25,1535,255070
-108,29,296,1,1492,255072
-103,90,183,-101,1421,255068
-83,130,181,-95,1430,254900
-61,10,213,-100,1534,255067
-7,-38,134,-126,1532,255111
-41,86,73,-15,1447,255068
-35,172,62,-133,1469,255080
-21,71,83,-122,1494,254961
14,12,74,-71,1416,255014
-15,91,11,-38,1403,254973
48,134,-103,-27,1498,255028
99,31,-97,-49,1544,255045
79,-12,-133,-106,1502,255031
70,56,-105,-109,1481,254978
76,91,-133,-49,1460,254989
65,0,-88,-47,1445,255015
41,-25,-47,-81,1415,255092
27,90,-75,-103,1482,254999
80,161,-145,-130,1531,255058
85,88,-101,-91,1535,255070
109,97,-119,-136,1422,255057
93,198,-104,-187,1443,255015
82,200,-40,-116,1439,255043
83,62,59,-125,1411,255000
62,35,159,-75,1541,255003
49,136,113,-84,1569,255012
56,177,39,-50,1504,255081
59,68,74,-55,1456,254967
55,61,21,-58,1402,254937
42,126,-81,-115,1497,255062
14,82,-36,-216,1601,255062
3,-68,15,-178,1548,255100
-29,-79,-5,-87,1479,254986
-14,36,-135,-96,1465,254969
-16,36,-119,-71,1542,255053
14,-36,-91,-77,1601,254923
46,-1,-143,-129,1459,255051
-7,112,-80,-90,1505,255051
6,96,-42,-103,1482,255004
24,-17,28,-64,1495,255132
-37,21,104,26,1535,255016
-47,160,-3,-64,1499,255063
-16,161,-46,-117,1532,254989
-19,92,78,-113,1427,255039
-28,103,38,-141,1498,254956
-57,187,13,-153,1447,255005
-70,112,82,-64,1529,255016
-65,-43,150,-79,1537,255140
-84,-24,137,-24,1414,254897
-91,52,16,-4,1446,254983
-73,29,0,-130,1496,255039
-43,-58,-28,-146,1515,255128
-53,-8,-107,-38,1508,255183
-86,106,-108,-38,1494,255135
-83,9,-62,-140,1560,254986
-86,-91,41,-80,1481,255013
-142,-7,42,-48,1451,255040
-117,101,-31,-161,1550,255026
-86,62,-11,-156,1587,255055
-79,10,27,-121,1443,255067
-83,97,-134,-133,1485,254995
-125,211,-74,-84,1520,255063
-147,87,59,-101,1556,255023
-112,-3,109,-78,1537,255058
-172,75,127,-65,1507,254974
-159,184,170,-114,1494,255038
-98,103,129,-91,1554,255082
-79,28,155,-150,1509,255039
-111,134,84,-129,1533,255082
-109,206,30,-65,1521,255011
-129,94,80,-34,1531,255083
-137,30,153,-76,1438,255140
-170,109,52,-113,1472,255050
-163,186,-51,-246,1521,254987
-127,85,26,-222,1528,255089
-92,16,-2,-76,1458,255042
-95,93,-160,-47,1451,255001
-111,113,-171,-67,1531,254925
-102,-17,-51,-125,1432,255018
-100,-98,-57,-85,1382,255034
-157,25,-88,-48,1428,254994
-150,81,-163,-88,1526,255031
-106,-43,-48,-110,1573,255136
-84,-76,-47,-29,1504,255125
-86,42,-95,-8,1446,255131
-80,65,-116,-41,1500,255074
-27,-95,-33,-53,1489,255082
-80,-165,83,-130,1437,255086
-98,-55,49,-104,1415,255077
-65,-3,-41,-85,1459,254969
-37,-88,37,-61,1491,255102
-34,-111,98,-91,1508,255195
-29,-21,-36,-122,1417,255097
-23,19,14,-122,1491,255059
-20,-133,97,-134,1565,255115
-25,-187,140,-105,1393,254990
-59,-55,60,-83,1408,255010
-50,-12,34,-52,1550,254938
0,-111,48,-77,1531,254989
-18,-94,50,-41,1455,254957
-18,43,-163,-85,1482,254979
-13,13,-139,-121,1532,255030
6,-164,43,-81,1459,254991
-7,-194,85,-54,1435,255012
-29,-87,1,-83,1530,255081
-6,-103,91,-77,1506,255095
40,-239,155,-50,1430,255044
55,-228,81,-58,1404,254992
38,-95,-20,-89,1470,255073
48,-113,26,-67,1503,255088
87,-265,91,-101,1457,255062
80,-276,82,-185,1438,255050
62,-153,77,-162,1484,255066
102,-153,-7,-116,1530,255098
141,-220,-26,-62,1505,255105
125,-138,-91,27,1476,255087
106,-20,-178,-49,1469,255055
123,-93,-186,-72,1559,255005
115,-231,-31,-40,1508,254955
70,-221,-112,-166,1445,255040
62,-133,-184,-45,1481,255013
69,-155,-73,-11,1465,254978
112,-251,37,25,1500,255030
120,-163,-143,26,1489,254985
85,-5,-225,-108,1568,255030
60,-67,-89,-163,1551,255067
103,-236,-18,-96,1473,254939
71,-231,-31,-46,1463,254984
46,-124,-43,-63,1464,255093
76,-173,86,-46,1504,255132
106,-239,154,26,1489,255006
108,-122,42,-91,1438,254988
99,-10,-55,-82,1427,255020
91,-99,74,-82,1528,255016
74,-231,134,-142,1489,255041
36,-188,34,-55,1487,255101
13,-91,-12,-95,1479,255120
28,-171,42,-58,1453,255080
-7,-189,32,-123,1505,255042
-12,-71,-62,-78,1444,254950
-39,51,-67,-105,1543,254923
-21,-23,72,-209,1618,255044
-9,-131,91,-51,1496,255024
-46,-62,63,-57,1438,255043
-63,30,35,-73,1466,255030
-33,-18,67,-133,1502,254950
-39,-43,84,-120,1508,255103
-65,66,53,-87,1491,255019
-75,117,-43,-95,1464,255068
-83,29,104,-24,1527,254966
-82,-64,155,-42,1472,255004
-77,-42,65,-96,1508,255045
-117,8,85,-157,1477,255020
-108,-28,146,-171,1473,255107
-95,-32,165,-123,1515,255072
-107,81,40,-64,1512,255001
-111,130,-46,-45,1504,254990
-94,13,75,-96,1675,254984
-154,-111,168,-138,1540,254982
-208,-24,23,-131,1430,255058
-226,63,-8,-78,1476,255022
-168,-48,53,-34,1480,255116
-195,-78,-10,-42,1466,255132
-193,60,-200,-64,1469,255034
-209,149,-185,-95,1546,255001
-209,-7,-24,-77,1573,255039
-237,-123,6,-21,1475,254993
-324,-27,-95,-122,1417,255056
-352,-7,-85,-53,1472,254989
-295,-127,-44,-3,1486,255044
-301,-114,-75,-76,1464,255039
-342,63,-189,-115,1524,255085
-328,101,-209,-64,1528,255035
-299,-20,-92,-108,1499,255079
-299,-28,-50,-71,1447,255023
-320,66,-62,-135,1535,254951
-340,51,2,-130,1457,254908
-306,-45,130,-118,1410,254971
-299,-18,72,-140,1484,255110
-319,85,-37,-117,1435,255067
-314,46,-69,-143,1520,254984
-298,-81,50,-85,1498,255066
-325,-81,9,-102,1444,255008
-363,70,-10,-83,1402,255064
-365,36,22,-118,1411,255133
-311,-112,117,-131,1497,255082
-311,-126,159,-78,1446,255047
-342,-3,170,-57,1473,254995
-332,-36,250,-80,1474,255016
-306,-169,325,-82,1443,254929
-352,-136,280,-62,1424,255071
-381,-23,157,-121,1489,255102
-388,-59,148,-61,1495,255031
-364,-129,143,-40,1511,255005
-368,-47,0,-79,1554,255043
-342,121,-96,-168,1522,255069
-351,90,-8,-136,1537,255005
-319,-44,21,-165,1472,254986
-374,-55,-6,-98,1445,255139
-394,7,-63,-19,1466,255039
-375,-84,41,-83,1440,255102
-294,-198,82,-93,1494,255057
-312,-99,-8,-109,1527,255143
-290,69,-162,-105,1564,255054
-252,57,-90,-84,1578,255010
-220,-55,7,-110,1524,255061
-236,-16,-28,-109,1449,255074
-224,50,-147,-135,1432,255053
-206,-33,-82,-65,1563,255055
-168,-116,-19,-93,1469,255073
-171,-29,-142,-88,1444,255092
-173,113,-185,-110,1497,255152
-141,69,-27,-117,1528,255047
-108,-30,131,-119,1502,255124
-158,31,130,-73,1484,255018
-148,86,103,-86,1466,255021
-87,-21,237,-101,1533,254931
-36,-133,282,-106,1556,255044
-32,-12,120,-88,1484,255027
8,119,5,-119,1452,254943
49,30,125,-76,1416,255060
76,-52,237,-122,1412,255083
47,49,129,-104,1478,255028
37,112,80,-51,1482,255042
60,-16,188,-84,1606,255105
111,-82,141,-46,1458,254978
101,76,-23,21,1458,255024
133,171,-94,-78,1497,255037
153,51,-34,-28,1540,255092
200,14,-4,-74,1494,255068
125,94,-67,-97,1442,255098
113,117,-66,-66,1471,255056
115,2,24,-100,1499,255051
102,-23,-33,-136,1521,255025
86,97,-138,-106,1471,254986
133,138,-234,-86,1428,254913
149,41,-213,-157,1516,255116
148,38,-208,-149,1536,255044
108,133,-276,-121,1535,255040
103,142,-300,-190,1475,254978
154,44,-166,-92,1536,255052
116,33,-171,-48,1500,255128
128,170,-200,-125,1487,254987
138,229,-176,-116,1513,255088
185,109,-72,-101,1515,255048
207,56,-25,-92,1467,255122
170,150,-20,-47,1467,255143
182,139,-36,-69,1528,255056
207,-17,132,-107,1563,255040
189,-47,90,-71,1468,255046
188,70,45,-94,1428,255078
182,87,91,-39,1529,255077
195,1,198,-52,1503,255074
169,12,195,-94,1443,255063
131,79,174,-103,1424,255088
126,14,167,-65,1451,254995
99,-69,258,-35,1452,255079
75,-33,171,-34,1459,255078
85,80,40,-121,1574,255000
93,76,41,-60,1565,255013
103,-19,136,-83,1483,255063
61,-8,121,-111,1447,255086
-3,52,75,-138,1500,255022
0,-1,64,-101,1522,255117
32,-108,81,-114,1450,255131
-19,-57,14,-125,1391,255075
-11,70,-127,-84,1472,254903
-3,77,-174,-29,1473,255015
-11,8,-120,0,1465,255104
-37,47,-78,-51,1452,255104
-62,73,-119,-102,1451,255020
-57,23,-85,-137,1510,255064
-67,-75,0,-125,1489,255054
-38,-43,-72,-177,1469,255028
-18,41,-192,-52,1456,255036
-8,13,-203,-57,1509,255019
-19,-34,-135,-136,1507,255061
-41,7,-133,-79,1373,255097
-74,46,-134,-56,1482,255131
-76,-39,-118,-66,1521,255094
-112,-148,52,-86,1453,254987
-124,-98,-35,-92,1482,254960
-122,-12,-122,-120,1525,255113
-110,-46,-115,-125,1515,254954
-107,-88,19,-117,1493,254919
-127,-30,-3,-81,1421,255070
-137,66,3,-88,1525,255021
-132,2,41,-118,1519,255029
-118,-95,97,-125,1393,254996
-137,-43,70,-61,1422,254995
-121,44,28,-25,1511,255050
-74,-22,-8,-45,1492,255070
-58,-72,57,-58,1462,254902
-91,-5,26,-124,1444,254917
-108,34,-5,-77,1470,254925
-132,-67,58,-109,1459,254882
-143,-100,74,-123,1496,255043
-172,3,-5,-95,1429,254997
-154,47,-7,-113,1511,255100
-129,-51,80,-63,1481,255143
-103,-75,64,-168,1427,255071
-132,34,44,-124,1511,255085
-170,58,77,-97,1531,255172
-151,-78,128,-76,1476,255100
-145,-157,43,-112,1425,255042
-150,-73,-29,-73,1516,254980
-135,-32,-35,-82,1523,255045
-80,-120,2,-10,1531,255106
-79,-118,-20,-70,1463,254991
-71,-8,-68,-66,1535,255102
-80,-7,-38,-86,1503,255068
-56,-112,9,-106,1486,255077
-88,-85,43,-64,1506,254998
-64,34,-23,-136,1428,255040
-59,25,-35,-83,1500,254932
-22,-33,-12,-80,1518,254907
-41,-26,16,-107,1464,255053
-82,108,57,-183,1500,255089
-60,28,132,-86,1511,254990
21,-79,191,-136,1456,255036
-36,-69,170,-58,1501,255052
-11,58,66,-81,1523,254982
5,68,22,-93,1592,255034
65,-27,-7,-138,1577,255027
54,1,13,-135,1516,255111
18,123,-13,-92,1558,255091
-2,79,-16,-90,1544,255147
14,-43,114,-145,1496,255074
-14,-64,22,-60,1533,255018
0,32,-93,-74,1582,254961
29,12,-106,-147,1570,254986
47,-80,-57,-156,1467,254996
23,-35,-46,-50,1496,254992
-19,68,-123,-9,1470,255094
18,-29,-70,-89,1490,255120
0,-144,74,-57,1518,254944
-16,-102,104,-79,1501,254981
17,-1,-75,-168,1472,255002
97,-18,-71,-71,1484,255161
95,-79,-48,-41,1496,255056
78,-3,-122,-86,1532,255020
57,72,-122,-94,1515,254974
56,4,-20,-149,1474,255006
69,-114,40,-72,1488,254976
16,-93,64,-47,1498,255030
34,14,4,-93,1510,255084
32,-46,-45,-57,1500,254952
80,-111,-42,-43,1470,255025
3,-31,-38,-73,1526,255015
-13,61,-13,-77,1469,255077
-30,-11,34,-58,1527,255033
-21,-93,31,-64,1466,255031
-103,-21,57,-36,1509,255022
-56,48,36,-120,1503,255011
-39,-54,13,-147,1487,255089
-11,-95,37,-54,1459,254972
-75,-18,44,-31,1527,254979
-91,55,74,-71,1547,254993
-82,-66,25,-124,1516,255031
-80,-143,70,-109,1420,255090
-161,-60,63,-108,1500,254884
-157,22,43,-113,1485,255105
-114,-69,12,-58,1468,255140
-100,-156,-7,-51,1462,255125
-157,-94,46,-33,1433,255097
-180,-52,79,-60,1478,255046
-183,-169,94,-102,1518,255053
-188,-262,80,-33,1535,255004
-266,-119,101,-5,1533,255043
-273,-24,28,-97,1490,255069
-245,-87,-46,-58,1425,255027
-251,-76,-80,-46,1513,254897
-274,9,-50,21,1506,255035
-276,39,-63,-64,1517,255060
-281,-109,23,-99,1518,255119
-319,-148,81,-106,1556,255026
-360,-51,12,-116,1450,255060
-355,-15,7,-92,1493,255075
-325,-103,14,-47,1559,255010
-310,-129,-29,-42,1436,255032
-334,24,-80,3,1434,255080
-346,51,6,-90,1538,254999
-290,-116,38,-122,1531,254985
-289,-136,108,-80,1379,255130
-310,16,64,-128,1374,254986
-300,69,73,-88,1521,254915
-241,-43,108,-124,1519,254956
-233,-39,85,-101,1472,255039
-294,87,23,-64,1442,255017
-265,64,22,-104,1470,255024
-249,-67,29,-73,1428,255060
-288,-78,60,-87,1405,255071
-294,9,1,-74,1547,255042
-300,10,2,-103,1493,255025
-278,-100,58,-110,1500,254976
-264,-23,-35,-113,1446,255053
-316,71,-39,-136,1460,255080
-312,18,-10,-143,1466,255055
-302,-133,16,-159,1470,255083
-361,-78,109,-165,1485,255021
-371,61,116,-76,1475,255076
-313,36,-8,-43,1506,255088
-255,-9,4,-68,1495,255103
-238,35,-26,-85,1422,255026
-268,108,30,-84,1460,254993
-250,21,70,-39,1490,255088
-257,-108,178,-113,1458,255047
-281,-103,111,-140,1500,254930
-285,-14,34,-124,1501,254992
-241,-35,80,-27,1551,255093
-179,-106,99,-100,1493,255077
-185,-24,-47,-77,1463,254972
-160,104,-118,-91,1482,255108
-142,30,-21,-131,1559,255047
-94,-111,32,-106,1480,255036
-149,-23,7,-100,1482,255025
-143,99,-65,-140,1579,254894
-114,41,-29,-99,1599,254988
-62,-27,-8,-63,1464,254962
-68,63,-97,-140,1418,255046
-132,176,-137,-132,1424,255054
-110,90,16,-152,1471,255014
-73,-17,121,-66,1491,255030
-110,48,60,-110,1477,255029
-144,129,-22,-152,1476,255023
-100,42,56,-159,1503,255006
-76,-47,101,-144,1501,254970
-58,47,-3,-138,1467,254947
-80,112,19,-76,1526,254925
-46,-15,140,-40,1478,255067
-27,-110,140,-93,1460,255057
-56,-14,50,-49,1487,255031
-88,81,18,-46,1574,255003
-17,4,19,-39,1563,255021
5,-49,42,-90,1482,254932
12,71,-87,-69,1499,254971
8,104,-120,-73,1427,255035
35,-76,13,-68,1488,255099
14,-206,106,-70,1460,255038
-24,-115,56,-122,1447,254916
-49,-20,46,-79,1474,254951
17,-110,133,-116,1517,254998
75,-126,70,-140,1471,255078
67,30,-102,-101,1471,255096
79,95,-84,-94,1494,255046
56,10,37,-200,1470,254976
104,-105,52,-124,1434,254982
75,-26,-5,-130,1467,255090
64,15,-32,-130,1471,255057
115,-41,-5,-162,1430,255041
133,-19,-29,-62,1487,255041
115,103,-185,-57,1486,255042
118,148,-219,-48,1501,255101
136,-8,-88,-76,1555,255070
113,-107,-64,-136,1444,255024
75,-7,-138,-54,1480,254944
62,20,-131,-69,1484,255007
107,-78,-75,-122,1478,255130
129,-85,-97,-138,1417,255046
84,61,-96,-66,1453,254996
60,96,-73,-49,1507,255102
85,-44,48,-113,1515,254993
63,-77,83,-52,1478,255052
0,39,32,-36,1501,255065
9,68,2,-95,1481,254991
35,-36,114,-152,1483,255018
39,-38,23,-92,1421,255013
25,84,-79,-95,1492,255145
18,58,-1,-84,1464,255054
52,-112,142,-84,1484,254950
-5,-147,79,-72,1399,254929
-14,-62,12,-46,1427,254915
-10,-95,35,-61,1521,255071
55,-179,67,-97,1465,255058
66,-99,-59,-93,1504,254993
70,67,-199,-82,1516,255008
76,19,-175,-102,1525,255062
110,-106,-36,-141,1450,255036
56,-115,-31,-76,1411,255067
21,-23,-127,-78,1461,255092
33,-37,-32,-85,1487,254991
66,-142,61,-69,1454,255143
89,-63,-43,-139,1450,255092
66,152,-131,-151,1466,255053
16,181,32,-121,1474,255132
25,18,56,-134,1433,255079
-4,8,88,-74,1433,255019
-83,90,111,-98,1454,255018
-66,39,135,-128,1518,255084
-34,-75,164,-55,1520,255098
-39,32,102,-109,1479,255047
-26,136,-27,-61,1472,254986
-21,58,56,-161,1482,255050
-11,-52,111,-53,1447,255041
-30,-25,78,-12,1462,254910
-64,34,43,12,1454,254984
-9,-61,60,-55,1452,255133
12,-130,153,-56,1469,255058
51,-7,-42,-114,1481,255091
73,112,-146,-48,1567,254998
89,50,-7,-117,1603,255010
102,-75,48,-42,1510,255003
84,-13,-71,-13,1426,255017
40,81,-91,-64,1457,255047
46,5,-81,-14,1500,255135
73,-53,-78,-61,1491,255039
72,53,-215,-80,1539,254993
95,145,-275,-143,1579,254862
83,58,-128,-93,1575,254990
78,-48,-26,-59,1559,255085
65,4,-149,43,1451,255023
24,44,-123,-26,1462,254968
23,-49,9,-53,1498,255060
46,-78,-18,-56,1494,255113
53,68,-176,10,1505,255010
87,180,-182,25,1547,254972
105,79,-41,-62,1480,255015
103,-27,36,-110,1480,255053
53,26,16,-111,1388,255068
22,36,44,-89,1408,255061
44,-52,127,-65,1482,255075
63,-86,128,-46,1473,254990
35,64,-3,-54,1423,255071
51,151,-38,-101,1486,254986
38,76,102,-118,1522,254929
18,23,137,-148,1470,254978
0,34,101,-50,1499,255037
-24,10,90,-78,1459,255034
-6,-94,166,-100,1451,255054
-11,-115,117,-64,1434,254995
1,32,-14,-32,1432,255044
20,100,-109,-38,1520,255010
22,-2,-53,-95,1504,255082
-10,-30,0,-133,1472,254914
-28,41,-89,-116,1507,254958
-32,20,-170,-68,1440,255058
-9,-79,6,12,1455,255035
-36,-80,136,-100,1398,255051
-10,86,-30,-146,1437,255086
-10,148,-136,-124,1476,254992
-16,64,-7,-159,1492,254980
-30,-5,15,-93,1453,255089
-82,49,-40,-65,1501,255026
-102,33,-109,-102,1484,255011
-72,-99,-169,-36,1475,254976
-60,-98,-191,-63,1385,254975
-63,50,-245,-67,1463,254995
-53,80,-249,-115,1544,254965
-35,-8,-109,-98,1560,255015
-76,7,-6,-112,1491,255054
-119,46,21,-104,1448,255093
-109,-47,169,-173,1539,255047
-95,-179,273,-177,1538,255006
-136,-72,268,-135,1461,255058
-139,71,118,-157,1545,255036
-107,82,119,-133,1536,255081
-116,-30,261,-65,1493,255008
-169,5,232,-45,1454,255068
-208,97,118,-81,1441,255019
-247,30,170,-70,1555,255045
-234,-113,199,-129,1454,255179
-263,-80,192,-134,1472,255071
-254,62,75,-122,1499,254951
-250,38,35,-106,1585,255053
-247,-34,123,-108,1465,255011
-290,-13,170,-34,1401,255027
-302,26,64,-82,1418,255099
-317,-50,87,-82,1462,254981
-312,-129,206,-107,1461,255058
-333,-56,123,-103,1453,255131
-282,49,-62,-94,1481,255001
-251,15,-123,-166,1492,254992
-244,-79,-56,-40,1431,255078
-285,-63,-91,-86,1427,255080
-324,-15,-137,-81,1414,255028
-345,-138,-52,-120,1493,255130
-334,-253,40,-93,1500,255030
-370,-197,22,-90,1473,254979
-373,-72,-131,-117,1422,255095
-325,-115,-93,-50,1451,255008
-305,-220,48,-97,1424,255024
-361,-159,42,-92,1459,255036
-371,-116,-56,-55,1526,254941
-408,-205,59,-85,1495,255090
-390,-264,59,-88,1470,255032
-424,-154,19,-42,1441,254981
-392,-24,-82,-95,1461,255066
-369,-55,-43,-70,1489,254990
-364,-77,3,-97,1488,255093
-406,7,1,-153,1467,255054
-408,-7,-7,-185,1508,255126
-408,-115,101,-121,1474,255033
-405,-154,105,-134,1411,255076
-444,-49,72,-72,1494,255124
-405,25,-18,-51,1473,254968
-347,-50,-5,-64,1473,254964
-353,-61,69,-90,1428,255080
-378,43,89,-118,1500,255160
-383,40,144,-118,1568,255096
-382,-98,256,-67,1473,255096
-372,-163,274,-122,1448,255026
-362,-65,162,-21,1501,255043
-324,-17,83,-65,1494,255036
-277,-103,81,-50,1445,255097
-260,-90,9,-46,1437,255013
-274,-16,-55,-67,1509,255058
-267,-71,-11,-86,1554,255120
-259,-224,130,-105,1552,255053
-240,-220,55,-122,1484,255007
-266,-70,-14,-90,1455,255113
-189,-51,-76,-123,1561,255064
-141,-121,-55,-84,1477,255075
-144,-92,-88,-176,1406,255132
-178,11,-108,-19,1472,255148
-167,-12,-86,5,1523,255031
-171,-125,54,-46,1430,255020
-163,-109,-19,-126,1482,255045
-165,6,-94,-97,1497,254960
-114,27,-120,-83,1505,255055
-61,-20,-100,-63,1519,255101
-64,35,-77,-98,1462,255062
-94,128,-78,-113,1541,254908
-77,57,-73,-32,1531,255013
-92,-74,42,-5,1474,255005
-94,-68,15,-170,1459,255010
-78,7,-35,-94,1441,255081
-31,-20,-60,-59,1475,255003
14,-43,34,-66,1468,254960
6,33,14,-99,1470,254965
-35,111,-7,-124,1510,255037
-19,12,89,-108,1482,255105
-16,-71,195,-139,1475,255053
-38,-40,90,-116,1451,255030
-24,57,33,-108,1477,255079
53,17,-27,-116,1517,255164
116,-42,-6,-57,1397,254961
97,2,-20,-98,1471,255036
84,92,19,-90,1439,255037
73,23,94,-56,1492,255111
72,-66,232,-111,1470,255138
68,-5,90,-68,1460,255147
73,104,18,-41,1496,255076
112,46,11,-89,1506,255121
162,3,-4,3,1519,254960
147,79,-89,-35,1415,255067
124,132,-12,-72,1428,255181
138,32,81,-20,1442,255036
99,-49,158,-86,1478,255039
103,6,72,-103,1505,255045
94,68,45,-30,1542,255092
161,2,-1,-49,1524,255012
186,-46,-62,-62,1486,255014
167,60,-176,-39,1497,255070
149,101,-155,-53,1513,254987
173,-35,-33,-186,1534,255047
129,-100,91,-124,1474,255091
99,-7,39,-97,1506,255081
86,46,45,-97,1505,254945
132,-36,46,-50,1507,254924
160,-67,30,-18,1507,255001
145,34,-59,-13,1452,255076
146,75,-38,-52,1529,255097
148,-29,-16,-85,1543,255067
127,-75,55,-89,1423,255103
113,3,-36,-108,1515,255132
117,51,-31,-141,1552,254895
171,-21,-47,-149,1509,254937
189,-28,-79,-97,1462,255002
160,64,-154,-159,1498,255054
161,64,-151,-194,1527,254892
176,-69,-61,-142,1541,255093
157,-78,-17,-97,1450,255103
129,31,-119,-48,1506,255056
133,58,-100,-99,1453,254995
193,-44,-90,-89,1531,255044
209,-42,-145,-67,1491,254978
142,92,-136,-148,1469,255053
129,59,-100,-45,1556,255063
153,-92,6,-54,1490,254973
112,-100,45,-38,1470,254984
90,23,-12,-142,1464,255046
89,48,3,-69,1564,255087
121,-16,-35,-105,1551,255047
109,19,-150,-153,1486,255040
84,120,-120,-156,1473,255050
75,33,-95,-62,1465,255097
78,-107,-31,-37,1516,255051
-3,-88,34,-107,1409,255062
-45,1,46,-121,1503,255049
-36,17,50,-120,1510,255015
8,-27,72,-128,1392,254982
14,43,-15,-134,1489,254988
-9,171,-55,-85,1517,254939
-29,111,33,-93,1540,255009
-25,-20,132,-134,1520,255005
-90,-5,146,-109,1560,255051
-106,120,64,-115,1498,254997
-99,99,158,-95,1471,255055
-41,9,156,-94,1454,255089
-24,72,-31,-19,1388,255061
-25,180,-60,-90,1488,255061
-72,116,84,-46,1551,255036
-36,-24,83,-71,1489,255045
-93,11,56,-90,1471,255053
-108,121,30,-102,1507,255045
-110,74,51,-103,1547,255052
-21,-24,22,-81,1530,255084
-36,47,-73,-65,1453,255025
-54,110,-150,-99,1545,255024
-36,6,-98,-109,1517,255061
-41,-122,56,-168,1404,255099
-75,-42,-2,-32,1379,254955
-70,54,-115,-79,1528,254942
-52,-16,-75,-101,1560,255008
-32,-105,-63,-76,1492,254993
-38,-16,-83,-54,1489,255027
-62,78,-184,-112,1473,255004
-38,-14,-63,-84,1516,255099
-53,-87,103,-98,1503,255143
-86,-2,92,-86,1422,255073
-99,93,-1,-45,1454,255066
-107,46,71,-12,1559,255106
-66,16,32,-93,1502,255026
-42,113,-83,-90,1502,255012
-49,171,-80,-27,1540,254945
-52,22,-23,-29,1475,254929
-53,-57,69,-112,1437,254993
-94,19,63,-136,1518,255071
-83,107,39,-137,1515,255082
-60,28,88,-120,1577,255012
6,-7,26,-60,1493,255122
-42,128,-61,-113,1507,255035
-5,133,-96,-151,1550,255023
11,-44,-52,-115,1552,254972
41,-126,-32,-122,1433,254987
-51,-33,-35,-112,1441,254992
-28,29,-93,-63,1512,254970
-30,-58,123,-1,1442,254939
8,-92,57,-82,1424,255024
-16,10,-88,-88,1419,255001
-44,43,64,-54,1410,255041
-33,-85,180,-106,1500,255033
-24,-146,60,-102,1493,255024
-100,-33,32,-151,1505,254934
-94,-27,136,-129,1574,254930
-79,-137,154,-95,1461,255064
-117,-94,-23,-110,1434,254979
-144,46,-85,-19,1426,255069
-139,10,-27,-121,1453,255095
-77,-158,-20,-51,1504,255148
-107,-189,-149,-82,1418,255031
-201,-103,-85,-120,1414,255016
-182,-122,30,-157,1593,255046
-157,-213,66,-57,1563,255058
-152,-136,-16,-59,1520,255037
-117,40,-107,-48,1524,254988
-99,56,-90,-37,1483,255082
-63,-68,3,-6,1453,255122
-147,-59,52,-45,1481,255047
-186,57,71,-222,1443,255040
-180,60,105,-137,1504,254918
-136,-23,112,-111,1440,254958
-79,-11,-74,-109,1443,254954
-31,82,-220,-136,1456,255001
-23,42,-145,-116,1497,254961
-36,-63,12,-178,1479,255034
-94,-14,-14,-145,1446,255077
-144,103,-80,-108,1560,255038
-81,70,-95,-133,1588,254995
-30,5,51,-107,1551,254981
-31,105,26,-47,1487,255088
-70,243,15,-129,1516,255018
-126,191,178,-159,1488,255001
-179,35,347,-110,1518,255029
-192,38,316,-141,1487,255052
-190,138,281,-44,1460,255077
-208,80,270,-97,1479,255070
-224,9,341,-86,1491,255046
-272,52,190,-148,1426,255049
-335,125,155,-73,1489,255075
-353,20,116,-109,1553,255048
-315,-166,30,-74,1514,255024
-333,-191,-69,-38,1490,254968
-387,-93,-61,-114,1473,255029
-348,-130,-138,-168,1531,255113
-362,-175,-70,-95,1532,254993
-414,-60,-146,-45,1454,254995
-412,26,-79,-68,1419,254991
-398,-86,21,-143,1476,255053
-376,-219,20,-52,1431,255004
-412,-158,-3,-117,1497,254975
-445,-120,79,-92,1550,255064
-387,-267,127,-124,1532,255053
-365,-352,113,-64,1417,255138
-300,-250,-145,-59,1412,255069
-240,-125,-227,-84,1481,254984
-175,-197,-111,-56,1465,255036
-124,-294,-174,-111,1473,254955
-148,-228,-308,-160,1437,254945
-192,-196,-211,-86,1525,254950
-157,-256,3,-46,1587,255089
-106,-222,48,-146,1506,255076
-45,-54,-20,-103,1539,254989
-69,48,48,-96,1481,254942
-57,-73,185,-139,1463,254963
-43,-182,261,-201,1492,255068
-125,-120,217,-104,1460,255055
-182,-78,228,-133,1455,255157
-189,-151,339,-148,1540,255050
-279,-143,357,-148,1518,255078
-264,25,68,-101,1553,254941
-305,115,-108,-78,1558,255020
-335,0,-18,-94,1504,255015
-365,-61,89,-157,1416,255046
-406,49,-155,-153,1417,254989
-467,107,-160,-110,1501,254961
-473,64,16,-141,1495,255182
-482,77,92,-161,1514,255004
-464,235,-69,-138,1479,254961
-474,236,54,-42,1622,255000
-452,66,223,-39,1484,255119
-479,30,308,-88,1483,255066
-493,83,168,-160,1531,255102
-431,23,70,-117,1583,255204
-372,-135,102,-92,1528,255113
-350,-136,91,-105,1459,254998
-268,26,-75,-153,1488,255016
-219,24,-149,-99,1496,255104
-184,-56,-53,-160,1469,255059
-161,-21,-22,-140,1521,255031
-158,94,-84,-97,1528,255009
-139,79,-55,-123,1569,255084
-59,-49,128,-153,1523,255099
-23,-22,195,-59,1474,255004
33,148,59,-65,1478,254982
57,184,30,-56,1611,255019
67,76,190,-90,1507,255094
58,10,199,-72,1496,255138
82,89,42,-72,1478,254961
56,8,41,-103,1498,255070
75,-160,-18,-78,1504,255055
102,-119,-236,-65,1426,255105
86,29,-353,-61,1496,255007
106,-15,-310,-90,1526,254870
150,-162,-305,-157,1487,254990
102,-167,-379,-170,1478,255055
57,-86,-317,-128,1525,254962
26,-177,-111,-139,1478,255096
77,-301,-91,-142,1466,255072
47,-198,-139,-156,1502,255024
51,-23,-155,-141,1492,254932
83,-49,-58,-174,1563,255086
124,-122,3,-107,1494,255064
95,-55,-75,-73,1446,255056
56,4,-76,-136,1499,254928
76,-136,62,-116,1568,255041
132,-234,64,-64,1466,254976
108,-106,-120,-69,1440,254991
152,40,-158,-78,1522,254953
190,-17,-13,-71,1523,255027
200,-87,59,-111,1528,254989
170,-69,5,-146,1542,254959
120,-53,-7,-101,1560,255046
129,-173,178,-121,1494,255032
158,-249,241,-114,1485,255089
134,-138,168,-32,1440,255106
143,-46,97,-174,1511,255020
157,-83,238,-142,1508,255032
175,-135,245,-64,1442,254975
135,-100,226,-46,1468,255112
122,-99,171,-119,1532,255129
133,-180,253,-132,1548,255034
120,-185,256,-99,1537,254919
92,-64,169,-153,1444,255007
82,72,61,-121,1514,255024
57,36,129,-117,1508,255086
76,4,117,-183,1474,255100
52,91,84,-131,1501,255010
11,148,68,-72,1503,255008
0,74,100,-102,1532,255069
-4,44,164,-70,1444,255068
-6,184,70,-81,1431,254970
28,261,-45,-99,1538,255034
71,174,-10,-148,1566,254988
88,149,51,-132,1517,254973
81,221,-50,-109,1493,255030
99,231,-134,-104,1520,254973
96,116,-113,-105,1458,254996
177,44,-100,-191,1481,254990
182,178,-214,-102,1476,255007
221,239,-346,-97,1557,255077
277,164,-268,-130,1631,255161
272,139,-227,-49,1486,255050
263,224,-290,-35,1447,255103
262,166,-290,-66,1461,255078
265,-14,-116,-6,1530,255094
285,-19,-145,-65,1439,255116
297,124,-282,-95,1455,255090
343,170,-355,-136,1517,255089
364,88,-187,-44,1530,254937
339,72,-231,-32,1445,255107
304,153,-273,-56,1447,255097
270,84,-318,-51,1500,254994
234,-64,-175,-150,1451,254960
178,-66,-211,-94,1489,255058
139,111,-269,-102,1515,255066
129,151,-283,-65,1561,255143
133,82,-158,-79,1518,254974
92,123,-167,-53,1491,254887
27,222,-122,-47,1432,254980
-21,161,-54,-117,1499,255118
-24,-18,46,-7,1430,255110
-84,-15,47,-14,1443,255024
-100,108,23,-47,1506,254954
-82,83,61,45,1490,255004
-66,-19,96,-58,1465,255044
-106,-4,144,-61,1489,255021
-126,77,160,-65,1552,255013
-156,0,201,-56,1577,255078
-177,-139,347,-41,1537,255094
-206,-123,325,-171,1472,255152
-188,-32,184,-124,1495,255073
-190,-32,199,-39,1487,255036
-177,-114,312,59,1524,255004
-231,-50,322,-96,1446,255088
-274,28,243,-102,1442,255139
-303,-69,347,-100,1495,255082
-274,-186,459,-101,1473,255026
-320,-155,404,-90,1434,254971
-314,-31,276,-54,1439,255159
-268,-66,299,-69,1548,255097
-244,-154,401,-67,1416,255012
-264,-50,261,-61,1359,255047
-274,16,134,-46,1480,255044
-245,-88,180,-185,1491,254973
-247,-204,248,-177,1451,254990
-286,-117,25,-106,1380,255060
-254,56,-107,-125,1505,255124
-205,16,-132,-110,1523,255024
-160,-5,9,-128,1469,255061
-154,94,-4,-63,1500,255047
-148,112,-36,-115,1535,255077
-140,23,60,-46,1480,255102
-134,-69,98,-61,1481,255083
-155,4,-55,-162,1424,255052
-97,67,-189,-162,1483,254950
-40,-12,-241,-127,1455,254974
-11,-17,-326,-15,1430,254993
-54,88,-440,9,1492,254957
-52,99,-424,-46,1594,254887
-49,-47,-308,-13,1570,254911
-54,-118,-237,-16,1517,254957
-64,-18,-398,-89,1422,255059
-19,43,-358,-85,1467,254993
24,-17,-253,-42,1540,254999
37,10,-229,-41,1521,255044
8,109,-321,-55,1568,255018
16,113,-202,-78,1525,255051
2,-40,-53,-66,1483,254997
-7,-98,-18,-97,1432,254921
-57,14,-88,-121,1466,254931
-48,52,-165,-164,1484,254993
-11,-3,-126,-70,1532,254951
3,29,-115,-64,1534,255009
-59,126,-149,-23,1505,255105
-80,116,-140,-31,1506,255070
-95,-25,26,-123,1490,255033
-137,-87,88,-100,1511,254964
-173,-8,48,-100,1514,254896
-182,8,8,-77,1501,255065
-146,-51,78,-23,1429,255074
-143,-38,112,-49,1464,254970
-179,78,127,-51,1581,255049
-179,25,175,-99,1513,255031
-205,-116,273,-89,1467,255009
-265,-114,318,-142,1447,254991
-310,0,246,-127,1413,254966
-283,6,201,-114,1485,255073
-270,-60,249,-88,1495,255004
-293,-15,209,-98,1491,254995
-307,135,162,-172,1528,255085
-327,114,301,-136,1476,255039
-319,-12,370,-126,1493,255102
-341,-16,344,-148,1499,254999
-356,51,288,-133,1471,255016
-322,-9,347,-104,1510,255082
-239,-119,304,-114,1505,254969
-270,-26,267,-70,1415,254944
-288,103,200,-70,1455,255017
-255,43,254,-22,1576,255036
-233,-93,302,-127,1458,255053
-255,-101,286,-122,1477,254989
-247,-16,189,-26,1529,254952
-204,-36,137,-86,1487,255005
-155,-98,78,-66,1500,255004
-163,-24,7,-75,1488,255022
-177,52,-55,-82,1474,255033
-161,-69,7,-65,1566,255014
-215,-194,238,-62,1479,255036
-250,-176,187,-162,1438,254989
-261,-91,29,-118,1504,255034
-216,-153,-16,-122,1504,255093
-170,-200,-92,-159,1526,255080
-165,-89,-288,-108,1539,255036
-185,-12,-284,-39,1530,254983
-164,-128,-247,-60,1506,255085
-157,-234,-219,-74,1479,254959
-204,-179,-278,-116,1474,255033
-210,-119,-315,-96,1469,254981
-177,-173,-327,-146,1477,255048
-150,-169,-374,-120,1482,254960
-159,-47,-470,-92,1478,255097
-162,35,-374,-85,1508,255131
-133,-82,-293,-38,1551,254964
-210,-153,-289,-61,1456,254950
-239,-103,-187,-77,1429,255043
-256,-82,-106,-139,1510,255123
-212,-178,-133,-106,1463,255073
-223,-172,-126,-74,1405,255010
-264,-57,-137,-102,1501,255094
-233,-18,-175,-143,1533,255111
-221,-143,-30,-79,1444,255097
-245,-195,48,-126,1421,255108
-281,-126,24,-104,1497,255130
-270,-69,32,-122,1503,255112
-247,-138,109,-117,1470,255010
-219,-140,84,-92,1437,254990
-213,-2,4,-72,1505,254937
-219,94,82,-74,1549,255067
-225,-21,245,-66,1508,255093
-265,-80,319,-83,1474,255054
-284,10,286,-47,1469,255041
-301,17,389,-102,1521,255054
-243,-86,390,-88,1504,255103
-231,-92,250,-137,1395,255194
-252,50,156,-158,1381,255070
-216,52,210,-118,1486,255067
-194,-121,226,-118,1443,255061
-255,-145,306,-97,1387,254974
-291,-54,259,-106,1403,255026
-268,-71,241,-128,1465,255120
-172,-164,231,-119,1464,255074
-164,-129,86,-83,1448,255078
-157,10,-24,-73,1486,254904
-140,-8,35,-110,1547,255016
-81,-139,88,-88,1446,255038
-108,-132,82,-118,1360,255031
-136,-58,76,-62,1466,255052
-94,-63,170,-108,1505,255063
-16,-148,125,-77,1542,255200
2,-92,-33,-142,1519,255122
18,54,-183,-95,1495,255039
60,40,-107,-94,1523,254969
81,-80,-83,-114,1565,254999
32,-51,-128,-154,1449,255008
3,20,-179,-91,1484,255025
30,-25,-37,-52,1500,254973
103,-121,-49,-86,1455,255043
112,-40,-152,-173,1471,255015
129,94,-225,-132,1557,255005
169,66,-118,-142,1566,255018
207,8,-81,-78,1497,255039
160,50,-52,-71,1410,254952
155,104,-50,-103,1494,255038
173,40,-51,-96,1525,255045
238,-34,-38,-20,1545,255014
187,94,-135,-56,1508,254990
249,186,-209,-50,1535,255045
253,114,-168,-86,1515,255143
255,30,-78,-85,1430,254981
205,45,-107,-103,1476,254965
191,108,-84,-21,1487,255066
171,16,-1,-68,1489,255095
195,-60,-14,-102,1433,254985
168,43,-101,-95,1398,255051
186,108,-125,-93,1463,255047
222,10,-95,-118,1590,255101
245,-59,-53,-184,1492,255050
147,0,-9,-95,1518,255029
143,44,43,-83,1476,255000
147,-69,117,-129,1487,255045
198,-106,59,-64,1477,255035
190,10,-54,-62,1432,254993
211,92,-136,-17,1570,255014
218,32,-27,-56,1556,254968
237,-38,-103,-90,1425,254974
176,43,-109,-84,1398,255017
148,85,-37,-108,1547,255079
135,8,102,-110,1544,255151
172,-32,-30,-144,1522,255042
145,86,-68,-108,1491,255100
130,115,-60,-90,1467,255071
147,16,-31,-144,1458,255084
133,-29,-47,-69,1444,255093
53,69,-8,-68,1440,254965
65,83,48,-59,1487,255041
88,-45,162,-79,1504,255073
114,-25,171,-46,1447,255005
109,144,22,-66,1435,255055
111,204,32,-22,1471,255058
141,83,98,-76,1503,255083
160,14,85,-50,1431,255021
100,103,97,-109,1487,255088
67,93,156,-73,1475,255019
97,-50,176,-100,1541,255030
120,-14,96,-45,1477,254960
88,133,-29,-17,1450,254947
120,152,-58,-120,1534,255088
130,7,16,-83,1495,254993
88,-7,-31,-92,1447,255014
22,90,-70,-98,1490,255048
16,38,-49,-124,1546,255051
25,-100,75,-88,1441,255033
34,-63,13,-102,1381,254996
2,96,-153,-36,1432,254987
40,120,-202,4,1517,255036
46,-11,-101,-47,1502,255000
23,-60,-163,-79,1470,255047
-40,21,-197,-130,1498,255096
-59,-27,-91,-85,1511,255074
-42,-166,-18,-120,1593,255020
-9,-116,-117,-76,1425,254980
-50,42,-148,-160,1511,255019
-26,64,-147,-71,1539,255040
18,-35,-74,-102,1510,255027
-31,-6,-85,-68,1399,255004
-100,90,-76,-43,1484,254899
-109,13,44,-36,1513,254938
-114,-116,191,-86,1486,255004
-141,-46,130,-86,1528,254985
-151,117,2,-40,1514,254957
-127,100,9,-90,1530,254944
-106,-11,52,-62,1541,254995
-160,56,32,-56,1568,255024
-201,161,7,-86,1571,255089
-222,90,112,-115,1500,254987
-201,-31,223,-144,1423,255040
-229,46,220,-136,1480,255130
-243,186,117,-50,1514,255005
-238,146,146,-52,1587,254954
-214,30,173,-95,1477,255037
-224,35,88,-50,1403,255046
-269,78,86,-60,1468,255073
-263,-9,147,-108,1488,255151
-241,-81,229,-128,1364,255050
-227,37,74,-126,1432,254985
-224,135,-47,-92,1506,255000
-183,12,9,-18,1585,254991
-139,-122,11,-97,1495,255022
-176,-66,-73,-106,1420,255077
-207,13,-74,-83,1475,255039
-187,-101,20,-98,1468,255015
-153,-181,81,-40,1351,255053
-164,-46,40,-62,1407,255015
-146,86,-89,-163,1570,255066
-93,31,-45,-113,1577,255087
-79,-29,-1,-118,1514,255103
-108,26,-107,-107,1518,255069
-146,50,-231,-66,1522,254988
-160,-42,-52,-112,1497,254953
-152,-100,-5,-149,1466,254992
-140,16,-131,-84,1402,254952
-153,132,-108,-83,1512,255030
-113,74,-55,-71,1551,255151
-83,4,-50,-92,1482,255105
-94,85,-113,-48,1492,254960
-183,117,-130,-105,1500,254990
-147,-32,-15,-41,1505,255076
-162,-64,85,-74,1483,255115
-151,93,-69,-43,1429,255125
-154,177,-141,-52,1494,255065
-109,63,-47,-95,1529,254976
-112,-5,-10,-94,1419,254932
-146,76,-84,-66,1430,255014
-193,71,-94,-102,1491,254996
-166,-81,42,-86,1429,255026
-172,-125,162,-147,1351,255055
-209,11,69,-116,1381,255078
-185,92,15,-109,1466,255033
-166,-30,166,-60,1512,255009
-150,-56,132,-106,1518,254972
-181,55,60,-88,1529,254998
-228,28,90,-183,1521,255042
-232,-124,228,-134,1488,255128
-224,-155,237,-92,1466,255074
-243,-1,148,-76,1434,255039
-208,17,16,-85,1523,255032
-190,-68,138,-75,1461,255029
-194,-77,89,-147,1446,255023
-201,10,-29,-65,1454,254995
-238,-26,-39,-38,1498,254967
-216,-172,143,-69,1488,254982
-211,-190,114,-134,1504,255095
-197,-51,-29,-134,1424,255010
-241,-9,-3,-43,1488,255003
-188,-86,108,-77,1491,255105
-192,-92,30,-89,1496,255124
-219,-3,-57,-76,1493,255103
-257,-63,13,-104,1535,255115
-246,-198,194,-106,1508,255028
-267,-153,167,-60,1468,255096
-266,-4,25,-109,1491,255031
-245,-6,91,-86,1425,255009
-231,-104,205,-115,1429,255017
-252,-76,73,-154,1427,255051
-274,43,-48,-87,1407,254974
-313,-24,112,-133,1476,255047
-290,-173,201,-123,1412,255125
-297,-109,106,-128,1483,255099
-284,86,46,-16,1586,254982
-253,62,98,-35,1572,255020
-185,-64,151,-78,1501,255004
-196,-19,104,-69,1423,255073
-200,59,23,-34,1503,255084
-198,-98,-16,-81,1584,255067
-188,-208,71,-157,1538,254947
-186,-143,35,-175,1431,255026
-180,-16,-80,-27,1518,255062
-130,-38,-136,-96,1588,255082
-134,-87,-39,-81,1492,255031
-112,-24,-155,-167,1440,254982
-129,19,-203,-124,1496,255009
-158,-116,-151,-135,1532,254996
-194,-251,-16,-110,1435,255018
-213,-166,-40,-106,1462,255101
-187,-49,-166,-113,1511,255011
-181,-113,-135,-136,1522,255114
-154,-138,-55,-58,1401,255149
-184,-46,-105,-20,1418,254937
-175,-6,-181,-140,1421,255014
-170,-146,-132,-179,1467,255046
-197,-247,-12,-45,1517,255088
-212,-152,-111,-11,1484,255081
-198,-60,-105,-58,1500,255105
-180,-76,-70,-163,1490,255039
-146,-68,-27,-136,1458,255075
-161,-15,-72,-138,1490,255053
-154,19,-71,-142,1503,255002
-118,-109,-4,-55,1479,255008
-150,-182,99,-102,1464,254935
-159,-115,48,-114,1492,254908
-153,-12,89,-75,1490,254980
-111,-52,79,-89,1481,255055
-103,-92,124,-84,1493,254996
-137,-4,102,-30,1507,255074
-104,5,85,-81,1526,254998
-113,-126,179,-63,1432,255099
-114,-168,222,-91,1468,255024
-95,-77,186,-133,1498,255082
-111,4,170,-115,1488,255020
-32,-81,156,-180,1502,254985
-32,-98,171,-75,1521,254983
-26,-3,103,-25,1497,254987
-46,3,5,-111,1545,254979
-20,-138,61,-138,1535,254999
-26,-247,141,-84,1441,255070
-28,-156,60,-90,1494,255026
-21,-89,21,-18,1533,254959
45,-140,14,-44,1539,255076
42,-125,28,-59,1503,255026
62,-8,-35,-89,1523,254935
35,8,-87,-138,1473,255059
70,-121,-20,-33,1538,255001
49,-158,77,-39,1466,255008
51,-62,-14,-68,1429,255077
128,-32,-101,-134,1485,255108
165,-70,-70,-72,1491,255054
166,-47,-43,-53,1454,254981
147,58,-172,-79,1561,255035
185,25,-243,-163,1502,254959
198,-123,-158,-75,1467,254939
166,-123,-93,-83,1447,255032
153,-63,-163,-188,1592,255050
182,-46,-141,-173,1515,254997
235,-85,-50,-116,1481,255103
235,-29,-18,-65,1550,255022
253,75,-102,1,1520,254975
226,35,-88,-50,1521,255017
232,-52,-14,-108,1529,255106
195,-79,33,-185,1449,255098
207,-1,-59,-158,1502,255010
221,14,-63,-113,1520,255013
251,-33,-46,-133,1527,255017
253,17,-122,-95,1492,255011
249,123,-156,-207,1483,255007
233,79,-42,-102,1496,255101
233,-47,15,-70,1529,255191
176,-2,6,-42,1456,255076
151,82,-18,-77,1528,255096
179,34,-19,-78,1572,255124
221,0,27,-46,1505,255043
162,107,-10,-102,1382,255053
168,199,-52,-120,1462,255091
169,86,-22,-147,1502,255118
151,-32,101,-88,1429,255092
98,11,30,-59,1466,255063
101,55,24,-78,1578,255060
101,-3,130,-104,1530,255119
126,-57,64,-54,1397,255198
114,59,1,-71,1426,255118
137,140,0,-79,1492,255026
142,28,106,-103,1521,255066
121,-31,130,-161,1456,255123
73,31,62,-108,1435,255089
93,66,47,-84,1514,255028
116,6,113,-100,1522,255073
148,16,59,-77,1538,255060
101,145,10,-71,1504,255139
103,163,-30,-93,1512,255131
89,73,31,-95,1440,255018
82,31,-31,-85,1418,254971
40,74,-77,-53,1464,254962
49,115,-68,-96,1496,254999
57,70,-85,-78,1453,255017
64,70,-202,-50,1473,254899
9,176,-212,-117,1459,255042
12,176,-169,-84,1426,255018
9,42,-79,-94,1532,254976
-99,27,-67,-85,1506,254937
-101,77,-33,-71,1463,254998
-77,58,-1,-40,1557,255013
-36,-14,52,-71,1461,255131
-33,60,-15,-76,1406,255131
-42,192,-89,-73,1492,254992
-43,196,-22,-135,1559,255049
-53,75,46,-142,1528,255024
-123,25,9,-84,1474,255036
-152,97,-34,-100,1523,255071
-150,68,10,-90,1553,255004
-119,-27,-12,-39,1502,254983
-108,26,-76,-18,1479,254998
-138,156,-72,-84,1463,254975
-131,172,-32,-63,1446,255079
-112,61,13,-45,1461,255109
-172,47,3,-116,1521,255056
-221,106,94,-153,1506,255042
-211,26,103,-158,1473,254978
-186,-60,155,-108,1493,255043
-192,7,124,-11,1459,255027
-214,140,99,-9,1506,255132
-161,110,68,-112,1536,255093
-151,13,165,-137,1512,255124
-176,36,68,-92,1521,255075
-231,124,0,-68,1503,254997
-204,47,-3,-23,1476,254992
-194,-58,43,-120,1463,255065
-190,1,-85,-99,1503,254961
-225,138,-108,-56,1478,254910
-219,87,-27,-97,1527,255038
-212,-12,50,-122,1531,254984
-262,35,4,-99,1483,255018
-288,112,-31,-191,1481,255064
-266,24,-16,-136,1497,255073
-221,-67,77,-107,1514,255085
-224,-21,-32,-45,1450,255131
-213,80,-90,-45,1533,254977
-180,16,-50,-71,1517,255029
-195,-76,91,-71,1512,255169
-229,-11,23,-55,1490,255130
-235,76,11,-80,1511,254886
-229,18,80,-136,1496,255112
-179,-27,92,-109,1427,255071
-207,78,10,-54,1473,255053
-207,196,-22,-88,1489,255082
-157,98,29,-135,1553,255059
-150,9,101,-110,1530,254998
-219,80,57,-41,1539,254872
-204,92,22,-48,1477,254958
-207,-13,90,-68,1551,255024
-150,-54,134,-89,1517,254975
-183,57,-29,-93,1466,255019
-168,149,-106,-46,1539,254985
-148,50,27,-43,1561,255073
-145,-21,61,-108,1529,255097
-171,22,-71,-59,1455,255012
-173,48,4,-104,1449,254981
-151,-67,131,-127,1466,255014
-120,-101,67,-85,1429,254959
-123,46,-60,10,1470,255072
-123,99,-36,-83,1560,255057
-88,-25,22,-99,1562,255046
-84,-89,40,1,1475,254954
-177,-7,-12,-54,1438,254960
-187,9,74,-86,1504,254940
-160,-122,182,-141,1442,255000
-157,-120,177,-157,1468,254999
-157,5,33,-118,1549,254967
-162,62,68,-57,1559,255028
-107,-56,89,-53,1479,255108
-133,-105,119,-62,1416,254939
-172,-5,14,1,1508,254980
-208,-9,93,-64,1495,255037
-226,-132,84,-81,1470,255061
-198,-124,42,-118,1463,255142
-226,11,-81,-68,1518,255030
-221,34,-8,-120,1551,255079
-179,-90,39,-118,1503,255050
-190,-96,81,-27,1432,255161
-250,-8,-11,-60,1455,255040
-221,-36,24,-132,1518,254990
-204,-183,150,-91,1480,255149
-206,-185,89,-117,1421,254998
-230,-39,-82,-104,1413,255077
-239,25,-50,-89,1513,255088
-212,-94,13,-134,1460,255058
-218,-104,-3,-177,1452,254968
-281,18,-45,-69,1487,255001
-272,-22,48,-116,1490,255004
-242,-195,182,-102,1481,255010
-232,-212,96,-121,1453,255028
-241,-81,-67,-111,1420,254970
-240,-84,-26,-126,1525,255063
-210,-221,30,-127,1515,255087
-218,-192,18,-90,1535,255087
-264,-91,-18,-110,1491,255102
-227,-163,55,-115,1469,254919
-185,-268,119,-148,1496,254901
-186,-188,49,-101,1522,255014
-195,-41,-54,-87,1535,255011
-188,-78,35,-71,1447,255070
-143,-206,97,-11,1488,255052
-192,-158,7,-43,1471,255051
-223,-48,-32,-168,1485,254949
-224,-116,64,-177,1542,254971
-171,-230,94,-86,1475,255001
-190,-136,50,-73,1419,255008
-167,-8,-61,-124,1511,255075
-133,-109,-87,-106,1552,255003
-100,-225,-26,-53,1492,255042
-147,-181,-35,-73,1513,255016
-171,-105,-150,-142,1491,254993
-160,-182,-58,-111,1549,255075
-159,-272,26,-111,1495,255075
-161,-154,-24,-72,1453,255063
-150,-33,-138,-100,1504,255194
-99,-89,-65,-161,1555,255026
-58,-179,-7,-156,1489,255014
-96,-111,-46,-63,1443,255082
-133,-16,-135,-100,1476,255064
-126,-106,-2,-99,1566,255016
-92,-204,43,-166,1531,255104
-110,-89,-7,-176,1485,255072
-127,7,-90,-99,1487,255028
-101,-58,32,-106,1534,254982
-29,-160,86,-120,1458,254900
-129,-40,13,-67,1475,255071
-106,16,-24,-142,1507,255010
-79,-102,110,-109,1524,255027
-41,-187,114,-70,1441,255121
-39,-63,-58,-24,1474,254985
-47,39,-116,25,1562,254908
-16,-83,-69,-67,1539,255024
12,-160,11,-20,1487,255071
-26,-67,-60,-71,1437,255006
-38,-15,-30,-80,1518,255031
3,-132,88,-107,1496,254998
31,-181,133,-66,1474,255080
0,-43,30,-102,1456,255102
26,39,-37,-90,1515,254919
67,-38,11,-145,1576,255083
87,-68,19,-55,1548,255015
43,14,-79,-111,1425,255074
45,57,-92,-127,1493,255123
59,-87,68,-78,1476,255090
95,-130,110,-30,1431,255096
110,11,40,-80,1500,255114
106,66,-56,-122,1527,255080
147,-56,33,-122,1510,255053
176,-90,36,-60,1433,255020
144,11,-42,-86,1498,255052
135,32,-47,-91,1501,255029
135,-78,132,-101,1535,254976
149,-80,83,-121,1527,255089
152,61,5,-122,1447,255085
156,102,-31,-49,1507,255059
195,6,60,-32,1528,255115
202,-20,-31,-35,1452,255040
155,81,-120,-28,1459,255027
140,86,-120,-95,1508,255073
141,-69,-2,-29,1515,255093
140,-88,24,-14,1418,255077
147,63,-23,-1,1440,255088
151,88,-46,-99,1532,255033
192,-29,30,-78,1518,255053
183,-29,26,-66,1427,255001
183,70,-79,-104,1470,255002
147,35,-45,-86,1533,255003
169,-110,35,-129,1423,254950
159,-79,19,-102,1423,254988
175,52,-144,-67,1425,255016
199,35,-152,-56,1485,254961
250,-55,-61,-149,1530,254857
219,-29,-75,-39,1485,254920
182,89,-180,-77,1576,255059
141,47,-84,-63,1547,255082
143,-75,39,-96,1484,255087
149,-27,-44,-67,1434,255034
129,134,-101,-98,1473,255043
132,111,-54,-76,1442,255026
166,26,-2,-139,1442,255007
149,72,-60,-104,1416,254981
116,165,-129,-81,1492,254955
87,74,11,-98,1511,255053
81,-69,134,-52,1498,255070
38,-4,82,-77,1471,255027
18,108,47,-98,1451,255048
42,51,0,-25,1522,255053
62,-19,64,-74,1518,255059
36,66,-15,-108,1485,255106
27,137,-68,-65,1505,255034
23,21,-9,-177,1513,255167
12,-72,97,-64,1465,255002
-16,17,82,-57,1487,255052
-39,141,36,-53,1493,255097
-25,90,39,-101,1459,254977
-9,10,76,-89,1477,254967
-37,94,84,-82,1530,255056
-38,127,3,-42,1532,255100
-35,42,16,-70,1483,254967
-13,-17,129,-88,1451,255002
-70,125,52,-43,1521,255038
-14,186,-40,-63,1476,255126
-7,105,82,-18,1540,255093
-20,68,116,-24,1549,254993
-23,136,-41,-62,1501,255062
-38,174,-44,-133,1471,255095
-46,33,72,-86,1447,255007
-55,-41,102,-79,1453,254988
-77,67,9,-51,1480,254990
-49,176,-17,-41,1526,255012
-30,116,15,-83,1501,255007
-36,79,17,-91,1507,255027
-67,156,-88,-99,1442,254957
-107,157,-105,-72,1489,255075
-132,14,19,-92,1451,255059
-139,-49,29,-58,1492,255103
-154,49,-25,-66,1499,255111
-160,137,-75,-87,1502,255073
-139,72,-62,-102,1482,255044
-148,68,-58,-91,1496,255034
-152,159,-104,-117,1428,255060
-173,118,-188,-66,1510,255081
-176,-32,-99,-110,1490,255021
-206,-88,-27,-135,1431,255001
-216,30,-94,-129,1451,255097
-215,75,-189,-155,1548,255083
-199,25,-90,-135,1541,255036
-217,63,-6,-90,1526,255041
-224,188,-55,-82,1455,255133
-227,202,-70,-58,1564,255128
-224,82,60,-121,1529,255005
-274,43,100,-126,1465,255081
-264,158,17,-136,1498,255010
-261,197,23,-124,1539,255010
-219,116,42,-96,1571,255041
-226,110,83,-16,1532,255017
-237,206,37,-83,1488,254980
-237,175,42,-55,1547,254909
-229,10,133,-44,1542,254943
-277,-21,205,-112,1501,254990
-294,62,112,-182,1527,255038
-251,33,151,-128,1564,255034
-230,-98,150,-33,1544,255080
-243,-56,111,-151,1434,255024
-262,53,4,-140,1396,255038
-250,-4,15,-79,1471,254878
-241,-148,87,-77,1503,254979
-309,-132,82,-93,1474,255056
-294,-10,-9,-105,1483,255100
-272,-29,-27,-74,1473,255118
-237,-112,33,-116,1477,255066
-274,-26,-34,-97,1504,254990
-278,86,-50,-55,1462,255050
-271,6,3,-53,1500,255099
-256,-114,107,-81,1402,254945
-285,-74,135,-66,1461,255006
-295,15,127,-87,1504,255081
-246,-25,115,-141,1545,254940
-210,-62,172,-59,1512,255049
-228,46,90,-76,1502,255040
-200,141,14,-106,1605,254998
-182,45,13,-150,1491,255059
-190,-69,90,-72,1474,255098
-238,-35,118,-93,1445,255032
-200,47,59,-104,1469,255102
-155,-10,68,-44,1365,255095
-117,-50,94,-61,1435,255055
-124,56,16,-102,1420,255114
-111,121,-64,-59,1523,255110
-111,11,9,-1,1493,255069
-109,-107,-2,-25,1477,254984
-166,-36,-20,-87,1502,255066
-157,37,-80,-167,1595,255091
-134,-42,-28,-122,1578,254976
-104,-72,-49,-69,1426,254935
-131,21,-46,-101,1409,255024
-126,51,-146,-68,1462,255084
-122,-97,-89,-85,1514,255038
-119,-216,-36,-97,1523,255029
-183,-134,-69,-85,1534,255016
-138,-111,-67,-59,1518,255079
-118,-170,-74,-52,1547,255088
-113,-153,-95,-132,1523,255067
-137,-19,-82,-87,1519,255087
-132,22,-51,-31,1488,254966
-96,-115,-69,-121,1444,255017
-128,-167,10,-97,1414,255020
-177,-89,46,-75,1444,255004
-153,-91,14,-119,1503,255156
-112,-155,36,-110,1541,255084
-127,-111,79,-62,1447,255000
-120,26,36,-107,1499,255112
-139,45,74,-59,1546,255032
-118,-49,129,-41,1496,254971
-137,-80,155,-1,1470,255040
-151,-57,157,-176,1514,255238
-139,-99,178,-131,1568,255141
-92,-183,210,-74,1557,255002
-117,-142,155,-90,1507,254982
-125,0,74,-141,1464,255141
-101,8,89,-97,1484,255068
-90,-86,109,-89,1425,254991
-124,-96,114,-101,1391,254975
-167,-18,111,46,1493,255013
-135,-54,70,-116,1496,255073
-68,-162,89,-58,1497,255099
-69,-123,63,-130,1501,255007
-68,-23,-62,-62,1470,254961
-54,-22,-49,-55,1522,254904
-61,-127,24,-93,1455,255024
-90,-170,-39,-75,1337,255061
-121,-128,-40,-115,1436,255041
-100,-174,36,-132,1476,254947
-57,-240,55,-145,1485,255024
-58,-163,-9,-173,1526,255040
-50,-75,-82,-185,1529,254988
-28,-134,-75,-79,1527,255050
-11,-224,-52,-58,1398,255105
-82,-190,-138,-74,1409,255134
-88,-147,-114,-76,1472,255163
-75,-216,-46,-76,1538,255167
-44,-240,-12,-143,1544,255156
-70,-124,-106,-145,1480,255056
-61,4,-124,-122,1482,254982
-25,-57,-102,-179,1485,254971
-16,-145,-83,-135,1436,255108
-60,-114,-199,-117,1430,254995
-78,-56,-186,-115,1518,255077
-90,-136,-99,-92,1521,255155
-22,-194,-70,-37,1448,255185
-87,-80,-117,-47,1417,255061
-66,32,-51,-85,1470,255033
-49,-24,29,-73,1487,255180
-14,-93,43,-78,1510,255030
-47,-42,14,-34,1458,254964
-53,-35,16,-123,1539,254978
-24,-141,79,-129,1535,254973
-10,-199,106,-106,1470,255132
-36,-77,42,-75,1461,255088
-30,16,16,-106,1535,255082
-7,-68,139,-75,1517,255090
-5,-157,136,-58,1430,255000
-50,-82,75,-73,1428,255019
-57,-55,99,-113,1474,255010
-39,-184,161,-81,1545,255070
0,-243,102,-20,1489,255010
-55,-109,33,-87,1456,255054
-71,-33,-29,-120,1505,255119
-36,-120,24,-150,1451,255181
-38,-148,64,-72,1460,255097
-56,-72,-26,-77,1463,255071
-52,-75,-15,-154,1497,254935
-15,-192,65,-93,1510,255073
6,-212,56,-99,1434,255011
3,-74,-86,-39,1473,254971
25,8,-138,-88,1535,254952
40,-69,-71,-69,1564,255032
44,-92,-39,-134,1530,254960
-35,33,-80,-132,1527,255067
-20,39,-1,-69,1510,255017
33,-105,1,-67,1470,255021
53,-117,64,-98,1444,254936
18,72,-1,-104,1414,254970
71,121,-80,-175,1483,255106
123,32,-27,-102,1477,255119
92,45,-23,-127,1443,255030
69,130,-109,-89,1493,255038
86,78,-18,-119,1481,255082
112,-74,128,-78,1491,255026
129,-62,69,-67,1443,255016
107,101,75,-89,1485,255096
121,95,66,-150,1579,255076
162,23,66,-184,1456,255084
179,27,-35,-71,1430,255160
122,99,-2,-73,1520,255068
146,35,0,-37,1514,255045
161,-86,52,-64,1475,255102
168,-61,-36,-143,1458,255081
127,80,-87,-94,1484,255032
150,79,-128,-59,1600,254995
187,-28,-88,-103,1560,254905
170,-10,-109,-62,1469,254868
66,116,-173,-123,1525,254901
75,50,-119,-124,1456,255017
118,-67,-60,-129,1428,255044
96,-44,-70,-78,1422,255065
79,90,-86,-96,1430,254920
100,79,-112,-47,1404,255125
132,15,-107,-18,1491,255071
85,64,-95,-78,1553,254954
33,134,-157,-63,1566,254973
31,81,-136,-69,1504,254954
58,-14,-57,-79,1421,255068
8,46,-62,-99,1487,255073
14,176,-195,-114,1477,255063
30,136,-93,-148,1443,255062
72,67,60,-45,1494,255012
42,144,-18,-12,1524,255102
11,237,-75,-83,1454,254997
0,134,144,-173,1489,254975
29,-10,298,-221,1392,254994
30,53,178,-117,1468,255022
10,195,29,-62,1506,254933
38,149,81,-104,1529,254985
62,37,155,-64,1509,255028
44,97,118,-113,1512,254974
9,174,38,-100,1533,254991
14,50,92,-86,1512,255008
-10,-46,250,-122,1444,255154
-37,23,182,-110,1440,255081
-69,129,12,-155,1510,255041
-48,52,-37,-69,1492,254961
-57,6,36,-90,1547,254978
-110,95,21,-12,1498,255109
-129,158,-76,-102,1516,255152
-126,39,2,-67,1546,255082
-132,-13,130,-116,1521,255039
-165,103,73,-63,1442,255061
-167,154,-14,-64,1539,255064
-139,54,0,-64,1544,255042
-120,13,-27,-53,1541,254976
-154,132,-63,-139,1471,255077
-152,185,-134,-142,1479,255053
-149,56,-48,-166,1503,255044
-121,37,-2,-132,1452,254989
-134,145,-105,-89,1517,255059
-147,224,-105,-123,1580,255108
-118,146,-44,-143,1521,255107
-130,128,-54,-36,1508,255028
-156,230,-129,-74,1548,255016
-170,195,-97,-72,1560,255057
-177,49,-28,-113,1441,255005
-155,7,26,-90,1494,254947
-181,86,-21,-79,1454,255012
-203,115,-44,-98,1498,254954
-155,20,24,-38,1511,254963
-168,21,24,-40,1461,254970
-230,117,-29,-68,1459,255008
-232,86,-82,-57,1520,255055
-226,-68,87,-92,1550,255062
-244,-80,150,-77,1502,255099
-241,48,90,-22,1502,255075
-262,60,136,-43,1539,255087
-230,-12,214,-60,1507,254965
-214,35,85,-130,1494,255003
-242,160,-3,-69,1591,255103
-261,140,10,-41,1635,255099
-257,27,44,-41,1544,255066
-258,8,57,-20,1472,254963
-279,118,24,-86,1548,254997
-254,96,14,-61,1596,255011
-236,-20,6,-111,1564,255028
-246,45,59,-120,1494,254941
-277,144,58,-138,1476,255041
-261,86,60,-82,1556,255078
-253,-34,130,-38,1492,255006
-267,23,116,-6,1497,255025
-309,176,95,-91,1542,255069
-268,126,120,-125,1513,255102
-212,-26,116,-95,1486,255047
-247,-11,178,-57,1507,255082
-244,78,70,-52,1575,254994
-238,9,97,-126,1537,255070
-242,-130,203,-136,1465,255089
-235,-107,186,-65,1438,255068
-218,-14,18,-60,1489,255048
-214,-35,-6,-109,1521,255065
-174,-130,-28,-32,1528,254996
-180,-47,-35,-79,1481,255056
-197,44,-86,-92,1549,255071
-185,-71,-72,-41,1515,255125
-174,-150,56,-48,1420,255100
-194,-91,24,-105,1370,255098
-207,-3,-124,-150,1446,255183
-194,-68,-50,-117,1435,255017
-188,-125,24,-144,1378,255018
-197,-21,-145,-118,1482,255034
-200,84,-214,-30,1503,255114
-166,-2,-126,-63,1505,255042
-163,-132,17,-112,1424,255025
-170,-66,34,-162,1446,255071
-166,9,-18,-158,1500,255025
-164,-98,117,-73,1545,254971
-132,-192,112,-60,1468,254891
-157,-122,37,-81,1505,255032
-148,-60,-52,-92,1553,254979
-137,-156,28,-147,1512,255036
-114,-217,66,-86,1501,255008
-132,-104,19,-60,1474,254914
-112,-63,-70,-114,1524,254990
-96,-148,69,-127,1469,254999
-72,-201,95,-65,1471,255005
-111,-109,29,-67,1486,255040
-101,-75,-95,-101,1511,255065
-95,-190,21,-83,1543,255087
-74,-237,-15,-81,1455,255128
-99,-121,-92,-92,1444,255035
-114,-67,-58,-136,1531,254977
-102,-145,42,-119,1514,255040
-52,-198,25,-29,1475,255042
-90,-74,-29,-56,1482,255033
-73,-73,-117,-77,1583,254957
-30,-210,44,17,1566,254988
-58,-249,130,-30,1478,255023
-66,-138,51,-94,1476,255036
-68,-67,21,-144,1511,255056
-51,-132,113,-90,1509,255028
-29,-128,122,-46,1423,255057
-56,6,-46,-73,1473,255040
-56,3,-48,-106,1491,255006
-16,-150,87,-78,1463,255067
-15,-220,192,-81,1485,254991
0,-122,98,-107,1471,255088
6,-85,95,-53,1521,255126
45,-209,210,-71,1576,255111
50,-214,102,-114,1517,255055
15,-76,-33,-88,1480,254962
3,-80,-76,-66,1560,254987
22,-223,-7,10,1574,255072
0,-222,-35,-88,1465,255098
-40,-62,-109,-74,1469,255057
-33,-93,-86,-108,1539,255045
-12,-232,84,1,1529,255003
0,-199,-22,-62,1422,254952
-44,-67,-95,-146,1467,254966
-48,-82,-119,-106,1521,255059
-22,-213,-38,-87,1525,254967
-39,-176,-37,-58,1488,254974
-46,-61,-144,-91,1538,254969
-28,-102,-152,-175,1497,254998
-27,-198,-25,-89,1483,255051
-11,-134,-65,-108,1516,255100
-40,-8,-188,-146,1519,254976
-2,-60,-176,-93,1476,254966
10,-160,-8,-76,1471,255067
-12,-105,-10,-94,1477,254971
-36,4,-82,-95,1500,255013
-33,-30,-5,-111,1488,254957
-31,-134,156,-79,1479,254957
-17,-89,115,-75,1439,254958
-30,18,28,-90,1467,255007
-34,-45,47,-119,1453,254984
4,-167,64,-125,1466,254982
-28,-105,-29,-83,1435,254931
-44,26,-50,-87,1467,255048
-86,-24,24,-57,1495,255067
-51,-73,127,-95,1548,255033
-99,14,70,-65,1545,254987
-100,86,-30,-38,1462,255070
-81,-23,4,-105,1474,255116
-61,-129,114,-91,1430,255004
-100,-97,59,-121,1484,255014
-85,-3,-1,-93,1492,255148
-70,-44,114,-137,1505,255002
-49,-113,199,-45,1451,255040
-68,-21,27,34,1472,255116
-64,64,-38,-78,1531,255007
-57,-36,-41,-107,1561,255060
-28,-143,11,-60,1459,255076
-31,-76,-79,-115,1459,255078
4,2,-138,-139,1505,254991
13,-74,-31,-135,1535,254998
31,-82,-36,-108,1471,255061
3,57,-152,-86,1422,254906
-26,132,-138,-137,1464,255002
-23,40,-38,-90,1511,255038
-16,-35,10,-110,1491,255054
-37,55,-18,-93,1521,255181
-31,110,-26,-127,1462,255073
22,30,70,-103,1494,254933
50,-2,3,-152,1447,254961
50,97,-78,-84,1425,254935
15,169,-53,-147,1508,255093
51,28,20,-117,1480,255166
35,-43,8,-123,1395,255108
16,48,-50,-112,1453,255034
20,65,8,-75,1504,255066
49,-22,92,-90,1539,255000
29,-23,139,-113,1443,254961
12,121,32,-25,1527,255032
48,175,8,-117,1570,255086
99,44,30,-126,1541,255080
40,60,50,-75,1491,254947
67,138,-74,-104,1519,254918
93,162,-52,-72,1555,255023
97,75,90,-74,1514,254991
87,41,40,-83,1438,255075
87,141,-88,-100,1463,255073
59,149,-88,-83,1489,255086
79,21,-110,-80,1503,255049
85,-34,-236,-106,1407,255076
51,60,-229,-37,1438,255068
50,69,-189,-62,1513,255108
82,-9,-60,-6,1512,255010
57,18,-38,-47,1509,255141
44,144,-3,-100,1527,255148
44,148,52,-123,1547,255174
40,51,130,-17,1534,254990
22,64,23,-126,1522,254916
22,169,-36,-79,1500,255009
40,150,-31,-25,1454,255151
76,61,12,-51,1522,254983
44,114,-7,-18,1515,255045
19,241,-39,-76,1528,255069
-2,190,-42,-167,1585,255080
18,32,63,-110,1498,254881
-46,16,104,-50,1481,255012
-55,100,38,-62,1480,255150
-54,80,105,-74,1456,255051
-48,16,166,-138,1510,254953
-73,106,175,-77,1479,254981
-54,233,63,-108,1515,255039
-50,188,116,-145,1436,255152
-11,75,153,-70,1416,255087
-36,111,123,-36,1483,255022
-47,197,20,-114,1558,255070
-24,132,51,-107,1550,255015
-35,53,105,-147,1493,255023
-77,140,77,-142,1465,255059
-103,243,-37,-102,1510,255173
-74,174,-27,-110,1500,255089
-79,71,26,-61,1491,255001
-128,89,-15,-122,1462,255082
-122,133,-77,-85,1496,255008
-92,58,-102,-136,1531,255065
-94,0,1,-107,1517,255090
-131,83,-60,-88,1505,254992
-135,200,-163,-96,1555,255020
-119,145,-131,-102,1565,254994
-128,29,-68,-63,1541,255076
-121,78,-129,-73,1487,255058
-124,132,-223,-73,1508,254982
-90,46,-173,-100,1538,255023
-89,-12,-92,-109,1523,255040
-121,99,-126,-109,1499,254991
-133,162,-175,-55,1557,255027
-140,54,-111,-156,1535,255023
-154,-21,-1,-109,1497,255031
-188,43,16,-53,1528,255012
-180,69,13,-45,1487,255047
-141,-32,109,-106,1451,255041
-145,-36,226,-149,1466,255024
-199,100,230,-98,1513,255119
-184,162,137,-137,1504,255124
-159,76,150,-101,1549,255066
-167,29,174,-142,1419,255129
-186,89,106,-56,1413,255103
-180,72,48,-74,1467,255023
-165,-64,108,-68,1560,255017
-161,-85,156,-109,1415,255023
-207,22,142,-69,1406,255052
-201,47,92,-73,1500,255003
-223,-46,206,-28,1461,255048
-244,-48,258,-63,1418,254972
-237,8,112,-132,1442,254955
-207,-33,71,-91,1469,255030
-179,-123,135,-63,1473,255031
-195,-109,142,-58,1399,255049
-186,7,50,-81,1474,255058
-212,18,10,-98,1549,254997
-156,-60,56,-74,1511,254994
-181,-86,43,-34,1505,255025
-213,-38,-51,-61,1433,255017
-215,-67,-68,-131,1486,254953
-196,-151,-46,-83,1458,255112
-182,-141,-70,-152,1489,255063
-211,-34,-96,-142,1483,255012
-207,-33,-131,-145,1545,255013
-176,-110,-103,-146,1524,254980
-211,-98,-68,-140,1455,255143
-204,-42,-195,-89,1510,255032
-203,-118,-221,-62,1558,254990
-185,-208,-66,-108,1518,254975
-186,-181,-99,-92,1532,255130
-177,-54,-148,-131,1498,255065
-175,-39,-43,-17,1497,255049
-150,-120,40,-54,1458,254983
-186,-91,81,-91,1448,255075
-198,-5,42,-103,1494,255008
-177,-74,63,-69,1483,255127
-135,-203,132,-82,1473,255107
-162,-170,144,-134,1526,255048
-180,-77,96,-104,1523,255104
-166,-85,87,-116,1591,255046
-151,-152,95,-68,1526,255026
-179,-125,21,-42,1507,255047
-194,-59,54,-83,1459,255086
-197,-158,104,-110,1549,255062
-127,-260,36,-81,1494,255078
-152,-182,7,-37,1505,255041
-167,-96,12,-42,1517,255044
-103,-160,-39,-61,1621,255127
-96,-195,36,-106,1442,255067
-137,-89,-30,-78,1432,255018
-129,-21,-63,-97,1437,255060
-101,-140,-4,-126,1526,255024
-106,-179,36,-118,1467,255069
-120,-80,-48,-184,1383,254978
-134,3,-43,-151,1463,255100
-116,-82,17,-77,1528,255129
-134,-139,43,-110,1461,254997
-151,-91,-39,-87,1511,255052
-140,-92,-34,-73,1545,255115
-113,-210,48,-147,1513,254968
-87,-266,3,-116,1485,255070
-106,-164,-4,-67,1500,255112
-119,-89,56,-92,1549,255102
-60,-161,79,-89,1548,255068
-123,-129,116,-99,1502,255033
-146,-49,92,-15,1452,255016
-119,-51,54,-163,1546,255091
-90,-174,127,-198,1502,255114
-91,-220,35,-124,1498,254966
-106,-120,-65,-89,1523,254895
-91,-73,-39,-158,1523,255085
-90,-148,-1,-50,1597,255028
-97,-157,-101,-70,1573,254948
-144,-53,-56,-49,1511,255062
-154,-60,-49,-81,1418,255065
-141,-201,-2,-119,1465,255107
-133,-242,42,-90,1451,255116
-148,-164,19,-36,1447,254986
-121,-167,-35,-68,1464,255196
-80,-266,54,-69,1506,255076
-69,-234,120,-156,1455,255142
-88,-92,19,-168,1542,255089
-74,-59,17,-120,1517,255029
-47,-173,82,-99,1503,254982
-39,-174,28,-129,1559,255015
-34,-69,-99,-101,1555,255023
-29,-87,-49,-122,1519,254973
-20,-162,46,-89,1451,255013
-41,-125,17,-86,1424,254954
-63,-22,-86,-22,1459,255045
-52,-71,-52,-77,1462,255108
-34,-209,42,-153,1487,255091
-11,-192,-52,-162,1471,254974
-25,-91,-84,-159,1473,255053
12,-115,-52,-113,1487,255091
69,-196,-19,-48,1563,255005
48,-124,-14,-38,1394,255018
4,2,-53,-35,1494,254981
27,-51,-58,-38,1551,254937
32,-159,50,-93,1523,255163
27,-142,44,-62,1500,255176
16,-60,-129,-123,1536,255178
43,-86,-80,-86,1532,255161
48,-145,73,-13,1469,255136
42,-39,-32,-73,1443,255084
9,133,-180,-54,1469,254974
8,108,-24,-57,1513,254999
42,-32,73,-101,1398,255001
51,-18,-14,-98,1428,254908
-4,93,-7,-46,1481,254992
20,1,90,-76,1501,254969
40,-104,156,-56,1481,255018
-5,7,66,-92,1458,255031
-23,141,-48,-89,1497,255077
39,10,-9,-101,1517,255073
56,-104,3,-100,1475,254909
76,-14,-79,-78,1474,255018
77,76,-99,-94,1513,254990
80,-23,27,-129,1517,255007
123,-86,69,-84,1374,255114
96,9,4,-119,1480,255086
72,97,-14,-85,1535,255047
80,16,56,-175,1497,255066
103,-42,62,-89,1482,255060
74,69,-62,-97,1576,255026
75,152,-154,-131,1537,254934
78,72,-114,-96,1553,254966
99,34,-114,-153,1492,255028
41,166,-205,9,1479,255122
42,231,-143,-41,1514,255110
36,85,61,-124,1596,255102
68,-11,156,-131,1496,255047
36,99,90,-71,1406,255031
27,163,48,-119,1543,255071
34,78,162,-88,1534,255103
66,41,85,-122,1515,255070
41,179,-81,-83,1550,254980
21,238,-84,-78,1508,254969
29,91,20,-31,1478,255075
60,-4,-34,-51,1427,255010
4,82,-59,-70,1478,255060
30,51,-33,-143,1455,255076
56,-87,89,-47,1475,255089
26,-58,-6,-42,1469,255016
9,116,-73,-113,1492,255012
7,167,20,-68,1458,255103
17,47,50,-74,1567,255120
29,55,41,-75,1533,255147
3,179,8,-96,1490,255094
20,176,42,-42,1459,254980
48,45,82,-37,1528,255060
37,80,100,-70,1469,255031
-9,283,27,-120,1460,255040
-24,332,23,-71,1499,255107
-17,215,72,-100,1486,255034
-15,177,91,-159,1455,255073
-70,267,40,-140,1468,255097
-59,241,37,-49,1537,254949
-64,68,64,-73,1433,254998
-67,83,64,-43,1456,254954
-132,236,-23,-86,1463,254980
-123,262,-79,-121,1519,255024
-103,162,-9,-118,1508,255019
-119,150,-15,-69,1407,255125
-126,235,-117,-121,1467,255120
-106,204,-138,-191,1594,254948
-111,43,-35,-100,1489,255012
-92,40,-71,-6,1430,255043
-145,175,-138,-52,1391,255039
-138,134,-170,-87,1518,254981
-140,-12,38,-115,1483,255029
-140,0,60,-133,1402,255093
-170,129,13,-135,1454,255085
-137,104,28,-97,1543,255045
-124,-25,176,-55,1501,255034
-128,30,90,-117,1427,255085
-164,188,-40,-98,1498,255022
-162,168,-75,-112,1548,255025
-131,70,82,-166,1623,254961
-176,111,129,-90,1472,255005
-191,201,-52,-80,1539,254985
-179,166,-36,-58,1548,255060
-187,73,133,-77,1492,255138
-203,144,70,-99,1461,254957
-224,298,-22,-91,1498,255052
-195,232,48,-94,1528,255077
-174,99,123,-33,1475,255030
-170,136,95,-98,1458,255047
-208,205,38,-115,1504,255085
-181,92,77,-94,1526,255080
-159,-23,130,-13,1465,254994
-223,85,3,-44,1468,255111
-224,191,-59,-116,1528,255102
-217,125,-7,-104,1510,255084
-201,46,6,-128,1470,255076
-190,108,-68,-140,1480,254984
-242,187,-68,-66,1559,255047
-219,81,-22,-64,1549,255080
-226,-20,45,-107,1471,255003
-226,38,-35,-115,1484,254983
-270,141,-102,-84,1529,255045
-228,84,-49,-61,1510,255067
-212,4,19,-161,1449,255110
-222,71,-107,-60,1467,255073
-237,121,-4,-109,1503,254972
-198,-4,56,-114,1531,254959
-174,-83,140,-128,1487,255069
-185,37,-62,-77,1451,255004
-178,119,-200,-47,1534,254987
-150,15,56,-107,1545,255049
-141,-61,97,-82,1489,255083
-121,18,-122,-90,1413,255077
-150,60,-12,-82,1567,255067
-124,-66,173,-43,1511,255058
-115,-185,135,-90,1484,254989
-132,-68,-68,-111,1513,255023
-149,-8,20,-102,1582,255020
-120,-109,120,-156,1574,255061
-82,-165,74,-105,1497,255091
-118,-54,-19,-77,1441,255048
-87,-12,15,-142,1446,255021
-57,-178,193,-95,1520,255004
-79,-199,214,-68,1488,254944
-89,-58,-12,-69,1478,254937
-110,-16,7,-118,1556,255003
-96,-112,57,-138,1482,255122
-102,-156,57,-94,1521,255122
-130,-8,-115,-128,1518,255111
-118,21,-29,-101,1556,255167
-101,-137,137,-60,1539,255027
-74,-126,121,-38,1497,254998
-103,-15,-42,-50,1464,255010
-99,51,-38,-77,1442,254956
-55,-125,-8,-96,1422,255179
-58,-154,0,-53,1467,255053
-65,-47,-41,-81,1482,255192
-53,-108,-76,-16,1581,255056
-18,-218,-9,-91,1460,255007
-28,-209,32,-100,1431,255055
-23,-108,-98,-104,1500,255136
-4,-110,-125,-42,1629,255044
27,-267,-16,-53,1538,254962
7,-243,1,-95,1497,255070
3,-183,3,-93,1545,255101
-20,-240,42,-16,1547,255073
16,-363,94,-69,1510,255064
-32,-345,180,-47,1517,255019
-13,-191,24,-155,1531,255069
-6,-209,-37,-78,1524,255028
17,-292,5,-130,1533,255001
-4,-271,30,-119,1499,255092
19,-179,-64,-81,1456,255102
23,-213,52,-48,1514,255080
46,-338,100,-85,1497,255130
0,-282,125,-41,1488,254985
-2,-133,-30,-80,1464,255003
-15,-146,-14,-64,1453,255081
21,-256,-12,-100,1421,255102
-4,-233,-2,-100,1358,255114
-10,-120,-39,-114,1478,254980
-4,-158,24,-75,1551,255081
-3,-253,56,-50,1523,255109
-43,-212,76,-140,1429,255094
-65,-110,-15,-63,1397,255167
-65,-162,-38,-131,1450,255070
-59,-242,2,-169,1503,254973
-72,-180,-18,-151,1470,255067
-66,-116,-114,-78,1538,254973
-52,-175,-15,-103,1499,255142
-60,-259,84,-103,1472,255128
-83,-184,76,-88,1485,255127
-75,-91,-3,-109,1494,255039
-130,-140,30,-93,1540,254971
-99,-232,10,-115,1485,254948
-105,-160,-49,-74,1485,255042
-81,-84,-94,-70,1487,255158
-53,-181,-25,-116,1557,255102
-34,-260,39,-111,1492,255097
-85,-143,52,-158,1488,255003
-55,-86,-74,-169,1550,255083
-35,-168,-15,-132,1586,255044
-28,-235,-55,-139,1474,255057
-74,-131,-56,-85,1452,255056
-41,-95,-133,-41,1523,255051
-27,-204,4,-75,1525,255000
-36,-226,77,-116,1396,255044
-90,-128,50,-54,1433,255028
-76,-75,-22,-93,1437,255093
-77,-107,32,-160,1526,255060
-87,-139,30,-205,1507,255046
-114,-71,-23,-118,1463,255108
-94,-46,-66,-83,1474,255111
-89,-148,17,-53,1521,255056
-94,-150,3,-54,1512,255024
-121,-60,3,-118,1515,255025
-158,10,-11,-98,1545,255127
-115,-62,70,-107,1552,255251
-148,-78,7,-110,1487,255099
-143,5,-80,-120,1496,254994
-157,-8,-8,-117,1526,255002
-126,-131,116,-152,1544,255049
-135,-154,73,-87,1506,255039
-166,-42,89,-118,1491,254959
-161,19,-28,-66,1477,255065
-108,-45,-44,-107,1509,255162
-141,-27,-89,-159,1501,255159
-117,75,-174,-117,1468,255054
-108,50,-81,-73,1558,255019
-74,-59,-9,-123,1493,255013
-82,-75,5,-114,1459,254945
-115,37,92,-99,1506,254955
-56,17,22,-99,1555,255139
-62,-49,50,-68,1493,254963
-73,-29,10,-57,1494,254954
-65,37,-13,-55,1442,255045
-54,-7,-8,-9,1460,254934
-29,-84,10,-94,1446,255065
-50,-78,41,-138,1414,255079
-93,-1,90,-102,1421,255092
-64,-22,50,-61,1470,255094
-50,-77,10,-125,1475,255080
-51,-18,-97,-96,1440,255106
-52,56,-182,-76,1526,254990
-46,41,-187,-144,1531,255008
-29,-30,-138,-75,1428,255005
-34,35,-53,-60,1440,254981
-62,102,44,-49,1520,255051
-42,21,3,-152,1480,255078
-41,-45,107,-86,1441,255046
-60,-9,104,-20,1461,255084
-110,99,-22,-36,1467,254992
-49,101,-61,-107,1530,254911
-33,50,40,-80,1487,254963
-89,138,-61,-55,1541,254943
-86,253,-58,-39,1533,255089
-63,195,-18,-72,1490,255086
-74,106,73,-66,1445,255023
-83,126,-20,-91,1449,255024
-79,164,-52,-65,1505,255023
-44,62,-46,-85,1494,255075
-29,24,60,-159,1477,255064
-32,132,16,-136,1542,254914
-19,228,20,-102,1492,254929
22,147,54,-95,1536,254965
40,74,153,-86,1507,255010
8,173,89,-92,1439,255037
18,219,27,-94,1508,254993
48,94,110,-120,1549,254989
58,26,78,-59,1460,255004
18,116,21,-60,1412,255066
27,210,-8,-69,1500,255054
18,144,113,-62,1453,255117
9,127,162,-107,1453,255131
-55,206,64,-120,1486,255079
-33,201,-42,-110,1509,255049
64,110,83,-61,1446,255087
7,44,64,-102,1423,254980
-66,217,38,-158,1486,255039
15,279,143,-66,1510,255045
-72,71,72,-54,1482,254985
-139,154,161,-42,1443,255035
-31,457,30,-95,1537,255070
48,368,-242,-82,1541,255059
-131,104,-249,-43,1515,255040
16,43,-49,-148,1410,255054
80,82,9,-110,1435,255076
-155,180,-539,-29,1473,255076
-3,170,-11,-100,1530,254996
-49,96,478,-38,1489,255125
-105,205,-244,-126,1444,254991
6,362,-78,-120,1492,254910
120,85,278,-95,1552,255078
18,-36,-52,-86,1351,255080
-68,340,424,-164,1452,255009
96,215,117,-159,1582,255166
-122,81,128,-9,1469,255023
-75,117,155,-62,1455,255069
16,131,-8,-145,1547,255007
-38,239,-356,-163,1444,254979
-133,294,-156,-119,1441,255019
-17,-15,-59,-75,1541,255121
-127,130,-333,-69,1425,255029
-230,341,35,-109,1481,254924
18,206,-14,-149,1541,255147
-94,-31,63,-42,1445,255095
-27,149,-62,-80,1401,255070
-96,370,-287,-79,1515,254990
-96,16,60,-140,1543,254979
-111,54,211,-140,1446,254989
-99,190,-104,-82,1504,255070
-213,89,105,-125,1545,255005
-114,-6,172,-91,1549,255033
-16,-56,-51,-122,1430,255036
-256,257,-70,-100,1478,255084
-146,196,-159,-150,1612,255090
-53,-18,-108,-16,1459,255141
-206,135,211,-56,1423,255060
-163,16,-177,-144,1459,255089
-47,33,-80,-20,1543,255027
-231,-24,276,-100,1428,255038
-235,80,-22,-110,1408,255124
-94,224,-222,-40,1493,255148
-258,37,157,-107,1538,254999
-179,96,40,-158,1478,255063
-139,17,8,-70,1457,255005
-186,-5,130,-145,1457,254992
-229,-35,171,-121,1549,255083
-168,-98,278,-80,1526,254964
-234,33,178,-58,1447,254953
-242,106,134,-79,1485,254959
-174,72,89,-130,1526,255018
-119,-37,52,-93,1531,255112
-188,0,37,-95,1480,255134
-197,128,-100,-132,1516,255087
-218,6,141,-128,1599,255143
-223,-143,208,-131,1430,255135
-208,-13,28,-115,1408,255068
-224,74,-27,-103,1530,255022
-214,-58,173,-127,1506,255008
-157,-173,144,-83,1510,255104
-183,-105,-43,-44,1478,254840
-189,-73,-12,-78,1526,254985
-163,-235,138,-86,1521,255018
-158,-263,-109,-113,1474,255112
-206,-68,-194,-93,1439,254967
-212,-30,-95,-123,1452,254956
-194,-122,-105,-57,1475,255079
-142,-190,-209,-46,1511,255042
-205,-129,-145,-106,1470,255182
-152,-105,-177,-163,1544,255009
-179,-205,-67,-133,1589,255012
-149,-166,7,-147,1548,254928
-165,-50,-12,-94,1415,255059
-193,34,-96,-140,1497,255051
-138,-69,19,-179,1573,254997
-137,-170,70,-98,1484,254916
-110,-33,-77,-85,1466,254997
-88,-61,-23,-70,1591,255086
-67,-149,147,-48,1524,255099
-90,-121,73,-57,1476,255164
-88,9,-88,-90,1482,255023
-77,32,27,-115,1584,255032
-79,-161,179,-131,1557,255018
-13,-145,34,-62,1472,255066
-21,-63,9,-53,1430,254909
-37,-141,34,-118,1461,255036
23,-236,158,-108,1460,255008
0,-276,113,-195,1424,254989
-52,-120,43,-88,1525,254968
-30,-129,10,-86,1553,255060
0,-270,154,-48,1478,255196
6,-275,97,-60,1421,255106
-17,-169,-5,-45,1479,255012
2,-121,-5,-78,1510,255086
-21,-251,143,-120,1543,255022
-30,-215,74,-41,1440,255172
-72,-42,-118,-70,1442,255008
-50,-35,-174,-74,1533,255023
-2,-178,-114,-93,1578,255019
36,-192,-190,-109,1462,254994
15,-88,-191,-80,1414,255058
44,-162,-188,-80,1512,254993
69,-282,-7,-135,1522,254917
26,-239,-76,-113,1439,255041
21,-83,-165,-112,1463,255064
30,-122,-65,-129,1527,255077
20,-240,99,-47,1525,255185
42,-210,-115,-89,1447,255045
37,-97,-147,-85,1493,255009
9,-155,29,-115,1526,255054
53,-304,-14,-74,1507,255061
40,-226,-104,-84,1440,255032
15,-60,-7,-92,1431,255001
33,-133,-15,-82,1522,255143
91,-223,6,-65,1497,255064
61,-180,58,-54,1474,255004
49,-114,-4,-48,1457,255054
81,-196,-52,-13,1473,255034
58,-315,142,-73,1462,255068
34,-223,65,-85,1495,255064
18,-99,-16,-86,1578,255100
48,-138,11,-101,1521,255018
75,-211,99,-92,1440,254910
91,-118,-4,-102,1472,254967
65,-3,50,-124,1531,254985
62,-106,74,-178,1537,255073
52,-188,173,-80,1487,255022
53,-115,72,-88,1480,255056
31,6,86,-35,1504,255048
49,-82,111,-59,1530,254952
59,-223,167,-92,1501,255026
77,-156,96,-57,1447,255026
42,-89,108,-119,1555,255015
82,-230,87,-159,1488,255124
68,-316,141,-105,1476,255009
29,-226,61,-11,1416,254987
1,-139,-36,-32,1500,255002
24,-248,-6,-80,1525,255095
-10,-316,83,-47,1490,255070
-15,-219,-66,-70,1450,255101
-22,-168,-109,-117,1468,255059
-3,-264,-27,-98,1489,255027
0,-311,5,-163,1455,255007
-52,-148,-22,-88,1426,254979
-33,-34,-134,-118,1491,254917
-64,-111,-67,-153,1494,254973
-50,-186,-33,-73,1505,255018
-56,-104,-136,-33,1493,255105
-72,-35,-141,-61,1537,255064
-39,-125,-89,-27,1535,255036
-46,-178,-131,-83,1485,254961
-108,-25,-154,-115,1428,255040
-107,62,-128,-76,1473,254957
-94,10,-91,-74,1525,255007
-104,17,-56,-61,1532,255008
-95,119,-158,-43,1480,255002
-98,110,-145,-85,1502,255046
-78,-25,-4,-76,1497,255103
-101,-41,-49,-97,1439,255032
-130,102,-160,-46,1367,255110
-166,146,-46,2,1499,255047
-152,30,55,-82,1530,255103
-156,39,30,-203,1481,255005
-201,157,-3,-76,1449,255080
-175,106,16,-117,1563,255019
-164,-89,169,-83,1483,255042
-200,-87,134,11,1396,255107
-254,54,27,-91,1498,255137
-254,98,98,-52,1562,255117
-241,-3,239,-1,1551,254984
-243,23,249,-42,1474,255006
-209,168,110,-113,1487,255037
-179,125,232,-131,1522,255040
-183,-10,285,-101,1472,255022
-189,13,170,-69,1415,255020
-208,131,58,-118,1446,254949
-243,133,147,-185,1517,254992
-208,20,50,-131,1505,255171
-224,95,38,-88,1574,255001
-196,197,11,-130,1578,255012
-159,151,-67,-47,1499,255054
-157,70,-59,-127,1476,255078
-212,133,41,-109,1502,255081
-220,265,-86,-134,1480,255091
-224,229,-87,-176,1500,255060
-231,106,-13,-94,1432,255099
-212,141,72,-65,1464,254979
-203,238,10,-121,1525,254925
-181,213,-22,-90,1527,254966
-161,97,75,-107,1440,255031
-184,126,61,-60,1463,254973
-189,220,-92,-8,1500,255013
-184,163,-70,-122,1542,255023
-172,70,-71,-99,1482,255023
-176,124,-99,-125,1481,255015
-153,214,-171,-97,1510,255011
-110,145,-102,-117,1521,254919
-117,72,-15,-91,1490,255006
-133,131,40,-87,1490,255075
-157,181,19,-115,1461,255147
-117,96,23,-186,1456,255088
-101,0,43,-59,1459,255046
-112,104,93,-85,1489,255000
-98,170,59,-117,1468,255027
-80,90,52,-108,1435,254925
-89,46,44,-54,1418,255064
-124,139,132,-109,1455,255029
-90,196,17,-120,1538,255011
-89,113,5,-101,1540,254911
-112,86,30,-72,1479,255080
-121,186,71,-173,1492,255110
-103,194,-85,-168,1514,255121
-85,114,-46,-124,1506,255009
-100,30,-13,-89,1468,255001
-149,130,63,-126,1539,255135
-152,186,-83,-44,1556,254985
-155,144,-28,-44,1536,255021
-134,110,19,-129,1434,254975
-128,170,-69,-165,1466,255015
-88,238,-119,-114,1492,254856
-68,103,12,-129,1490,254993
-48,16,41,-147,1496,255076
-71,82,20,-53,1488,255063
-78,94,42,-149,1476,254984
-50,3,86,-152,1478,255051
-56,26,104,-101,1511,255067
-67,169,97,-88,1526,255105
-28,197,47,-97,1466,255115
27,72,136,-49,1522,254979
8,48,142,-57,1547,255140
-10,139,101,-106,1429,255190
0,117,-37,-86,1493,255039
0,22,39,-132,1519,254995
-23,3,100,-60,1408,255000
-24,123,91,-88,1503,255019
3,127,67,-139,1595,255160
7,10,138,-137,1512,255047
15,-5,99,-51,1401,254988
14,123,71,-35,1493,254993
-7,124,-80,-62,1484,255122
12,34,-89,-82,1512,255081
-19,39,-70,-96,1468,255054
-48,146,-131,-73,1518,255000
-9,143,-267,-83,1567,255052
-7,28,-145,-140,1508,255050
-20,42,-12,-85,1502,255143
-79,127,-87,-168,1551,255065
-48,103,-120,-129,1509,255006
-39,12,26,-105,1522,254934
-35,33,3,-74,1487,255120
-27,132,-113,-91,1499,255034
-7,105,-125,-58,1508,255101
1,-9,-19,-32,1565,254991
-3,33,-19,-65,1408,255010
-60,114,-68,-53,1473,255012
-49,24,-132,-67,1532,255021
-64,-87,-55,-87,1460,254958
-63,-45,-68,-37,1485,255120
-68,75,-64,-25,1585,255061
-35,26,-190,-99,1507,255016
-39,-65,-107,-166,1426,254996
-44,9,-109,-109,1432,255009
-74,101,-67,-98,1496,255007
-79,56,-76,-167,1481,255108
-70,16,45,-172,1477,255051
-93,48,22,-30,1501,255109
-121,141,132,-49,1497,255119
-57,48,168,-49,1454,255046
-36,-81,256,-88,1473,255016
-94,-57,243,-111,1475,254986
-106,-7,208,-95,1526,254963
-125,-69,164,-142,1525,254953
-133,-148,188,-92,1484,254931
-184,-80,127,-140,1527,255112
-147,-27,36,-93,1543,254984
-121,-122,49,-175,1560,255035
-88,-193,39,-67,1494,255070
-108,-141,-20,-108,1480,254936
-121,-94,19,-56,1520,254898
-142,-196,121,-54,1547,255109
-100,-270,114,-126,1478,255097
-140,-165,140,-65,1405,255093
-120,-100,221,-72,1516,255044
-73,-195,195,-111,1520,255080
-35,-258,117,-86,1526,255106
-38,-140,16,-77,1462,254976
-50,-82,-65,-29,1449,254948
-26,-177,-108,-92,1481,255021
-36,-211,-130,-135,1380,255012
-42,-93,-254,-80,1431,255054
-30,-25,-277,-96,1469,255090
20,-112,-162,-84,1461,254933
0,-140,5,-178,1400,254997
-2,-36,-90,-119,1439,255064
5,-14,36,-73,1570,255016
20,-144,103,-100,1490,255005
16,-152,14,-86,1438,255074
-9,-54,-72,-120,1415,255049
-31,-48,-26,-56,1482,255031
31,-173,-98,-87,1566,255134
51,-190,-210,-172,1492,255100
44,-90,-210,-144,1542,255071
14,-118,-108,-99,1530,255058
36,-210,-89,-80,1477,255067
29,-204,-93,-78,1438,255023
15,-124,-135,-32,1478,255088
22,-172,-49,-138,1557,255153
34,-330,65,-108,1514,255165
56,-351,-28,-70,1463,255017
32,-222,-113,-35,1533,254966
-26,-161,-3,-52,1551,255086
0,-272,19,-75,1538,255106
12,-275,-80,-68,1420,255027
-1,-144,-196,-128,1453,254953
21,-195,-119,-72,1462,255026
60,-298,-78,-103,1380,255102
53,-233,-78,-89,1422,254995
18,-74,-52,-100,1419,254927
13,-91,94,-133,1479,255026
21,-160,160,-32,1479,255009
17,-56,116,-70,1421,255030
5,19,112,-114,1412,254952
22,-38,194,-95,1534,255016
75,-132,186,-108,1522,255070
35,-112,119,-183,1486,255017
10,-45,86,-30,1520,254945
8,-130,160,-98,1484,254999
-24,-208,211,-124,1509,255073
-16,-167,102,-64,1451,255160
-36,-95,-12,-121,1484,254991
-15,-154,66,-109,1500,255030
0,-277,223,-28,1441,254988
24,-229,163,-132,1441,255044
21,-155,13,-162,1472,254976
2,-195,71,-83,1498,254960
-16,-224,148,-97,1478,255027
-42,-138,80,-70,1503,254992
-52,-19,-77,-53,1467,255005
-44,-67,49,-99,1502,255010
7,-146,62,-80,1445,255114
-16,-62,11,-51,1508,255061
-55,50,-89,-52,1505,255066
-58,-16,-45,-186,1550,254979
-55,-100,-30,-109,1551,255014
-89,-6,-129,-55,1552,254997
-89,60,-361,-60,1549,254975
-78,-33,-200,-63,1576,254969
-51,-149,-159,-106,1503,255052
-95,-81,-153,-149,1451,255041
-106,-9,-221,-86,1487,255049
-123,-90,6,-144,1504,255070
-125,-119,41,-89,1458,255138
-144,-13,-44,-119,1457,255152
-171,57,-93,-90,1478,255108
-140,-43,28,-109,1529,255056
-106,-103,77,-51,1473,255005
-116,1,-43,-82,1423,255063
-134,33,-97,-104,1474,255058
-138,-56,87,-102,1522,254994
-144,-64,88,-108,1462,255066
-185,54,-18,-94,1466,255067
-231,112,46,-69,1503,255080
-167,-23,65,-44,1579,255036
-154,-64,140,-83,1537,255047
-182,33,108,-92,1484,255062
-164,46,37,-66,1511,255039
-170,-15,136,-64,1559,255144
-190,24,225,-100,1528,255135
-234,146,80,-113,1559,255115
-237,220,-4,-33,1553,255100
-212,107,130,-89,1514,254992
-208,61,64,-53,1487,255012
-236,115,-60,-71,1499,255057
-243,106,-121,-83,1533,255045
-223,19,39,-91,1506,255060
-241,-9,6,-128,1460,254982
-274,116,-41,-78,1478,254941
-276,116,-41,-73,1552,254959
-266,-13,149,-134,1546,255105
-247,-63,78,-68,1435,255046
-285,15,-4,-56,1430,254978
-289,17,-30,-142,1440,255024
-268,-108,76,-141,1535,255011
-249,-81,-13,-94,1506,255066
-296,69,-134,-88,1427,255076
-288,84,-134,-135,1429,255018
-219,-27,36,-116,1446,254995
-190,-21,70,-133,1447,255073
-206,103,16,-133,1498,255016
-197,83,42,-139,1517,255065
-157,-39,144,-123,1532,254960
-168,37,139,-73,1468,255157
-191,218,35,-122,1541,255041
-184,251,59,-238,1571,255061
-131,183,111,-163,1480,255124
-141,215,109,-89,1475,255103
-134,275,24,-140,1541,255096
-106,211,47,-94,1611,255052
-100,147,96,-91,1488,255059
-141,225,-3,-74,1393,255017
-146,284,-107,-68,1489,254984
-141,204,-42,-106,1511,255089
-99,68,48,-124,1489,255119
-74,54,-25,-45,1402,255096
-128,120,-59,0,1444,255044
-106,34,39,-82,1563,255025
-72,-45,74,-88,1519,255031
-98,30,10,-143,1500,255002
-125,97,-21,-46,1523,255002
-119,10,6,-106,1538,254936
-79,-96,15,-71,1501,255097
-118,-26,-6,-57,1467,255160
-110,33,-90,-102,1467,255022
-93,-46,-36,-73,1500,255045
-63,-87,-7,-25,1459,255011
-81,17,-36,-63,1415,255018
-94,143,-96,-60,1486,255028
-77,86,-31,-160,1533,255118
-43,19,36,-137,1505,254885
-48,100,-27,-120,1516,255070
-40,139,-140,-79,1488,255014
-20,37,-96,-117,1510,255033
-57,-14,78,-21,1513,255000
-99,153,7,-79,1483,255049
-80,264,-105,-141,1504,255093
-83,197,-71,-117,1541,255053
-24,159,-47,-100,1493,254976
-44,210,-9,-120,1506,255020
-65,226,167,-119,1533,255044
-50,71,239,-115,1508,255063
-48,39,75,-136,1505,255080
-100,154,-201,-101,1496,255075
-106,221,-63,-145,1530,255052
-133,129,256,-103,1496,255052
-93,96,283,-79,1488,255151
-94,166,61,-72,1481,255087
-72,124,38,-86,1539,255066
-50,-86,164,-91,1502,255144
-18,-89,143,-89,1389,255080
-79,61,108,-110,1476,255114
-66,70,101,-77,1572,255043
-79,-61,210,-80,1543,254957
-25,-49,96,-116,1449,255043
-46,75,-83,-92,1523,255041
-14,54,-104,-79,1521,255024
-11,-64,117,-78,1431,255056
-12,-59,77,-117,1462,255170
-40,99,-51,-137,1519,255148
-15,123,-93,-106,1563,254989
-11,37,4,-81,1499,255092
-8,62,-42,-115,1495,255152
-17,150,-118,-106,1532,255084
-5,78,-26,-109,1457,254997
6,-75,99,-82,1501,255000
3,-83,10,-68,1441,255007
-29,54,-150,-110,1507,254998
-35,59,-181,-157,1517,255085
-3,-46,-137,-97,1474,255140
-12,-44,-78,-122,1463,255124
-28,22,-188,-124,1544,254984
-5,-30,-182,-63,1513,255092
-27,-179,-75,-35,1551,255123
-68,-133,-12,-13,1457,255095
-97,16,-107,20,1468,255114
-75,-14,-29,-28,1583,254986
-28,-123,5,-151,1517,254977
-48,-61,81,-131,1487,254991
-72,63,10,-120,1519,255032
-44,8,18,-120,1490,255025
-45,-145,55,-53,1514,255118
-63,-110,-47,-86,1475,255079
-107,-4,-177,-219,1494,255067
-79,-33,-69,-78,1504,255098
-78,-105,41,-3,1471,255138
-50,-61,13,-90,1469,254993
-58,8,-19,-85,1506,255007
-36,-87,47,-106,1535,254997
-54,-205,183,-131,1478,255093
-84,-124,172,-174,1442,255096
-149,-16,151,-97,1570,255111
-122,-82,104,-74,1564,255075
-85,-176,84,-90,1479,255059
-60,-117,23,-115,1452,254967
-67,-70,-43,-70,1490,255089
-15,-207,-107,-78,1506,255093
-21,-350,0,-87,1479,255080
-63,-298,37,-52,1452,255094
-71,-201,-53,-105,1480,255092
-59,-211,-20,-69,1567,255138
-43,-268,142,-140,1588,255098
-39,-174,109,-76,1496,254864
-22,-63,-17,-44,1552,255085
15,-105,-3,-147,1467,255011
31,-175,35,-128,1514,255041
-22,-77,-73,-85,1549,255102
-56,36,-214,-114,1487,254997
-30,-34,-189,-91,1487,255012
-23,-86,-100,-105,1422,255066
-26,28,-95,-117,1484,254999
-16,77,-114,-189,1477,255019
34,-79,24,-117,1507,255141
60,-184,165,-72,1493,255099
23,-115,173,-186,1423,254936
13,-24,107,-141,1507,255030
59,-105,89,-124,1471,254976
79,-120,97,-7,1427,255043
78,26,69,-39,1450,255062
129,55,-29,-30,1488,255011
98,-70,-92,-54,1482,254960
106,-185,-80,-113,1446,255023
64,-101,-61,-86,1421,255019
56,-78,-136,-126,1485,255063
100,-185,-145,-147,1540,255072
88,-215,-39,18,1474,255035
76,-109,13,-126,1498,255012
106,-77,-94,-149,1553,255125
151,-155,-64,-97,1458,255094
155,-179,99,-35,1445,255033
119,-81,40,-80,1467,255138
117,-51,-67,-100,1523,255110
138,-139,-31,-71,1396,255078
129,-156,-27,-147,1419,254953
148,-16,-60,-85,1478,255007
124,25,-2,-73,1514,255048
145,-110,34,-159,1434,254972
118,-146,23,-57,1458,254994
63,-18,-5,-90,1486,255051
40,28,-32,-140,1466,255092
68,-57,-60,-155,1512,255009
50,-14,-78,-50,1513,254918
49,130,-112,14,1505,254958
61,116,-160,-47,1450,255062
99,-25,-103,-21,1480,255154
43,-47,37,-67,1456,255080
2,-7,-15,-132,1471,254978
1,-44,46,-46,1516,255093
-4,-137,144,-47,1453,255083
-13,-125,150,-17,1471,255070
5,-29,15,-27,1491,254980
1,-49,46,-77,1577,254993
15,-173,70,-93,1531,255040
-1,-154,29,-116,1513,255099
-28,-50,-35,-114,1499,255011
-54,-89,15,-89,1534,255095
-11,-210,50,-54,1491,255039
-62,-148,45,-58,1414,254957
-78,26,-27,-97,1469,255039
-72,0,33,-15,1489,255068
-76,-88,143,-49,1450,255027
-121,-63,40,-125,1438,254987
-152,24,-18,-114,1536,255106
-194,-17,92,-52,1493,255059
-157,-131,27,-75,1455,255041
-199,-31,-23,-51,1447,254972
-206,92,40,-79,1522,254936
-181,-23,7,-85,1511,255056
-136,-128,-15,-45,1427,254998
-195,-69,-22,-62,1494,255000
-213,44,-67,-99,1513,254882
-212,-8,-108,-98,1522,254998
-222,-86,-7,-67,1457,254960
-249,6,42,-62,1453,254961
-224,67,40,-24,1442,255039
-210,-30,6,-39,1517,255099
-183,-99,40,-70,1497,254990
-247,-47,103,-160,1449,255050
-245,21,-38,-119,1505,255078
-253,-34,19,-118,1514,254981
-246,-89,14,-175,1524,255000
-250,-8,-30,-88,1587,254922
-250,49,-27,-45,1558,255050
-260,-30,43,-88,1476,255000
-234,-102,31,-129,1410,255100
-275,11,114,-33,1428,254937
-321,84,66,-173,1542,254979
-331,30,59,-107,1575,255052
-327,31,38,-81,1449,254954
-339,132,15,-37,1531,255045
-334,218,44,-122,1518,255032
-288,119,80,-140,1505,255022
-274,21,46,-43,1427,255001
-309,123,54,-78,1449,255025
-331,155,65,-128,1516,255020
-327,30,28,-97,1464,255049
-330,-23,4,-101,1499,255057
-363,97,21,-74,1509,255088
-308,156,8,-116,1525,255149
-282,52,-1,-93,1541,255178
-278,17,-52,-42,1441,255036
-309,104,29,-35,1490,255028
-310,114,101,-63,1546,255064
-292,24,60,-119,1504,255092
-294,39,90,-202,1443,255043
-290,158,72,-76,1536,255014
-240,145,23,-49,1530,255082
-224,65,88,-144,1450,255179
-184,46,2,-114,1481,254978
-221,116,-19,-84,1438,254938
-243,121,31,-99,1522,255010
-250,7,83,-99,1470,255104
-231,-7,-38,-100,1351,255063
-245,122,1,-37,1427,254985
-194,118,37,-105,1506,254981
-146,44,97,-55,1420,255078
-153,81,40,-141,1429,255091
-169,225,-43,-102,1456,255056
-170,224,-6,-67,1494,255037
-142,109,81,-115,1520,255064
-125,94,53,-27,1450,255097
-147,183,62,-56,1503,255007
-90,170,52,-78,1538,255012
-55,74,150,-90,1507,255002
-58,66,122,-84,1502,255076
-53,144,12,-70,1464,255094
-81,104,83,-111,1514,255029
-95,18,155,-184,1414,255028
-99,27,-49,-192,1497,255045
-103,133,-103,-113,1536,254947
-69,79,-51,-142,1515,254933
-39,-16,1,-125,1455,254977
-53,43,-117,-123,1463,254961
-77,150,-127,-138,1542,254985
-68,87,-44,-31,1522,255101
-64,21,77,-76,1467,255046
-85,48,-60,-127,1503,255098
-74,128,-147,-106,1491,254911
-30,81,-100,-72,1522,255054
14,4,-38,-96,1547,254998
20,30,-130,-100,1496,254990
17,106,-153,-61,1486,255036
15,71,-67,-89,1512,254952
18,24,-19,1,1502,255033
6,89,-24,-64,1479,255040
-6,139,-28,-185,1446,255047
61,41,50,-105,1504,255017
35,-27,120,-58,1475,255049
38,24,114,-74,1489,255031
16,68,68,-126,1515,255092
14,1,110,-98,1474,255006
0,-37,174,-111,1489,254962
-32,38,93,-108,1448,254985
-56,114,23,-99,1470,254931
-16,18,83,-111,1541,254981
27,-81,146,-93,1487,254982
27,-54,-18,-33,1466,255025
22,-23,-9,-9,1512,255057
11,-132,61,-46,1542,255078
-5,-207,52,-108,1455,255140
-50,-111,-73,-177,1537,255062
-72,-61,22,-103,1498,255100
-39,-156,72,-127,1454,254973
-11,-160,67,-149,1437,255034
-68,-60,-52,-116,1468,255187
-56,-28,-2,-64,1455,255080
-59,-133,13,-57,1516,255079
-59,-142,-93,-108,1481,255090
-100,-43,-162,-21,1529,255086
-74,-33,-128,-74,1559,255029
-4,-146,-89,-80,1425,255029
-15,-138,-40,-76,1484,255077
-53,-18,-126,-107,1504,255053
-52,3,-76,-131,1580,255091
-45,-68,128,-83,1521,255169
-75,-80,115,-35,1445,255112
-77,32,-18,-86,1455,255052
-84,27,48,-95,1503,255034
-30,-81,108,-120,1518,255038
-36,-82,-3,-65,1423,255056
-70,-3,-41,-85,1418,254954
-58,-51,-13,-116,1494,254975
-29,-158,30,-60,1478,254994
-45,-116,-3,-6,1490,254988
-52,-24,-98,-78,1531,255020
-14,-55,-24,-56,1557,255107
45,-145,10,-46,1526,255045
35,-109,-37,-108,1530,255028
22,-17,-173,-96,1465,254952
16,-65,-115,-87,1503,255026
33,-169,-27,-89,1481,254984
-28,-115,23,-28,1459,254998
-50,-2,-78,-61,1458,255033
-47,-35,30,-25,1535,255044
1,-134,106,-45,1486,254964
3,-112,74,-83,1380,254982
-18,-9,-52,-109,1400,255009
-14,-41,-17,-133,1530,255076
-13,-95,94,-57,1470,255013
-50,-42,90,-130,1469,255047
-98,58,-49,-99,1492,255020
-70,-16,37,-47,1473,254989
-21,-137,113,-77,1434,255075
-9,-115,-3,-117,1422,255096
-29,-48,-162,-151,1441,255123
-25,-94,-57,-112,1398,255112
-28,-150,36,-127,1398,255134
-53,-92,-168,-67,1390,255039
-76,12,-165,-104,1450,255029
-58,-75,52,-175,1485,254931
23,-174,99,-140,1437,254957
37,-111,17,-91,1396,255086
46,-42,-89,-28,1444,255085
91,-120,-11,-67,1531,255051
80,-172,60,-173,1552,255074
55,-70,-36,-104,1499,255027
40,32,-94,-53,1527,254970
43,-36,31,-39,1520,254977
83,-115,108,-70,1390,255038
78,-23,77,-59,1421,255027
96,-1,-2,-96,1592,255174
132,-105,54,-121,1552,255120
124,-165,114,-64,1477,255034
53,-55,26,-93,1493,255066
37,39,-33,-113,1433,254997
72,-81,83,-70,1513,255121
99,-156,108,-61,1505,255047
60,-64,44,-43,1466,255008
85,-67,-47,-30,1483,254948
131,-185,14,-85,1547,254906
124,-236,62,-79,1444,254957
66,-103,-44,-79,1476,254919
64,-36,-136,-96,1562,255079
69,-149,-14,-78,1443,255062
116,-162,11,-42,1497,255037
81,-71,-50,-55,1505,254995
116,-33,-197,-49,1588,255078
155,-171,-178,-4,1562,255105
116,-201,-80,-16,1460,255058
82,-52,-183,-62,1468,255022
92,-45,-250,-76,1422,254995
112,-167,-83,-101,1480,254976
142,-195,-14,-109,1525,255054
116,-94,-85,-24,1511,255060
121,-80,-103,-172,1504,255139
116,-183,29,-166,1471,255039
120,-173,-14,-78,1462,254957
68,-20,-117,-136,1409,255016
63,10,-136,-109,1516,254945
69,-81,-13,-118,1553,254994
104,-85,-13,-65,1398,255008
41,21,-60,-97,1405,255025
75,-9,-84,-92,1519,255062
73,-152,3,-23,1506,255037
36,-140,45,-27,1546,254938
3,4,30,-125,1507,254953
-13,4,86,-142,1527,255080
10,-113,190,-139,1494,255103
4,-66,222,-55,1400,255098
-34,47,98,-135,1476,255073
12,5,38,-141,1451,255056
-5,-109,30,-115,1517,255065
-56,-71,-48,-82,1503,254975
-104,64,-168,-190,1468,254964
-130,24,20,-94,1527,254965
-96,-118,197,-96,1561,255069
-87,-74,211,-75,1465,255189
-133,43,191,-60,1446,255035
-107,-7,138,-47,1489,254954
-95,-111,212,-89,1452,255028
-136,-33,154,-108,1453,254982
-190,132,-25,-93,1506,255013
-178,136,-36,-58,1509,255042
-205,50,101,14,1454,255058
-188,103,14,-120,1476,254988
-231,188,-19,-51,1519,255008
-206,91,-42,-74,1557,254962
-198,-47,17,-162,1468,255081
-236,6,-82,-153,1537,255171
-266,137,-145,-184,1496,255086
-262,83,-82,-170,1553,255023
-230,-23,45,-17,1482,254983
-233,64,4,-35,1460,255003
-251,154,-16,-95,1480,255028
-225,45,30,-84,1491,255064
-228,-33,91,-118,1393,255017
-279,77,-8,-139,1474,255059
-313,177,-55,-136,1532,255109
-321,97,68,-61,1528,255078
-302,-12,106,-92,1467,255040
-327,94,102,-90,1523,255065
-354,169,93,-72,1529,255003
-321,37,112,-126,1524,254967
-291,-81,-8,-85,1423,255050
-355,33,-20,-107,1441,255020
-396,172,-163,-180,1512,255039
-380,81,-148,-72,1511,255004
-363,2,-33,-113,1473,255099
-384,112,0,-90,1493,255146
-395,149,-57,-27,1544,255063
-379,8,18,-28,1473,255003
-384,-90,121,-30,1515,255137
-418,28,97,-85,1500,255152
-446,126,48,-69,1602,255042
-430,52,62,-102,1593,255130
-440,35,142,-84,1542,255044
-436,177,28,-32,1541,255043
-419,220,-20,-63,1520,255012
-379,85,36,-57,1517,255004
-354,5,70,-44,1531,255019
-378,149,-37,-69,1480,255045
-386,212,7,-62,1497,254975
-345,59,144,-115,1484,255014
-336,37,235,-81,1442,254986
-376,168,168,-70,1476,255015
-365,202,142,-85,1597,255074
-314,41,190,-130,1566,255135
-342,-12,182,-150,1498,255022
-350,108,14,-54,1510,254946
-344,154,-18,-35,1506,254979
-309,88,85,-92,1441,255009
-284,60,54,-64,1433,255036
-279,188,-17,-103,1521,255075
-252,178,21,-134,1403,255070
-208,12,63,-100,1443,255037
-205,-11,87,-16,1419,255008
-261,97,104,-29,1457,254978
-261,124,68,-95,1490,254996
-238,7,184,-101,1454,254999
-222,-3,118,-108,1417,255005
-259,156,-98,-86,1505,255009
-198,108,-41,-143,1550,255032
-184,-55,55,-84,1503,255099
-150,-69,-195,-41,1479,255116
-188,70,-227,-21,1518,254949
-192,77,-43,-161,1530,255004
-136,-61,-23,-58,1505,255082
-101,-42,-89,-19,1507,255054
-108,92,-4,-64,1485,255008
-65,63,83,-77,1504,255035
-15,-67,46,-95,1446,255014
-21,-23,-101,-25,1476,254945
-49,120,-149,-102,1559,254973
-43,99,-44,-114,1545,255090
-2,17,-9,-131,1513,255083
20,48,-51,-123,1436,255074
7,171,24,-39,1469,255107
32,90,172,-61,1456,255166
65,-58,75,-123,1442,254998
53,-8,-29,-140,1474,254993
31,84,-57,-20,1511,255010
49,71,13,-125,1536,255004
87,34,14,-137,1501,255113
60,117,11,-118,1470,255079
84,211,-50,-74,1543,255012
100,129,63,-116,1552,254971
146,-8,129,-39,1542,254949
80,-4,41,-57,1393,255092
91,29,-85,-121,1462,255021
84,-25,41,-159,1512,255083
81,-53,-22,-153,1469,255065
67,54,-79,-87,1449,254987
71,116,-29,-63,1479,255072
88,41,176,-38,1447,255106
83,-70,100,-59,1431,255053
81,-36,-96,-130,1456,254998
82,20,-175,-112,1499,254988
65,-62,4,-139,1477,255003
76,-97,-92,-112,1468,255127
62,-12,-117,-61,1443,255037
48,62,-15,-39,1519,255055
115,-34,59,-88,1530,255110
162,-114,35,-77,1498,255055
144,-51,12,-113,1444,254976
143,-27,-8,-105,1467,255034
169,-69,-44,-32,1473,255017
163,-125,15,-70,1503,255094
159,-49,-57,-142,1454,255017
170,-9,-40,-135,1532,255062
175,-69,13,-12,1636,255000
171,-107,54,-41,1520,254958
184,-102,-36,-78,1460,254985
115,-31,-138,-89,1438,254941
129,-72,-47,-93,1460,255095
107,-92,-44,-135,1409,255097
109,-18,-52,-118,1481,255029
123,26,-25,-128,1460,255020
121,-35,92,-64,1472,255077
110,-114,83,-158,1399,255079
77,-67,-36,-132,1476,255071
63,-44,-122,-50,1506,255048
32,-117,25,-77,1497,255005
38,-143,7,19,1414,255085
38,-85,-63,-42,1433,255102
38,-8,-87,-66,1600,255197
38,-102,52,-103,1480,255105
44,-151,-18,-103,1459,255013
41,-99,-73,-35,1498,255008
-4,-142,-164,-60,1516,255122
3,-216,-100,-62,1435,255213
-1,-255,-46,-95,1445,255095
20,-155,-36,-119,1438,255016
34,-141,20,-90,1482,255089
46,-251,86,-99,1482,255093
42,-242,43,-95,1460,255097
31,-161,10,-111,1476,255071
12,-140,9,-133,1535,255082
62,-260,-49,-153,1495,255097
18,-204,-57,-134,1427,255078
4,-71,-39,-104,1507,255218
39,-87,29,-51,1578,254976
73,-153,94,-76,1489,255031
21,-162,86,-88,1452,255052
15,-46,-55,-172,1477,255051
-1,-98,-86,-129,1484,255012
0,-181,-45,-100,1508,254959
-28,-153,-66,-111,1501,255028
-27,-100,-75,-117,1520,255126
9,-115,-11,-142,1523,255004
26,-234,89,-76,1494,255019
-29,-220,61,-82,1489,255038
-28,-151,-18,-19,1482,254962
-63,-177,57,-85,1519,254993
-56,-218,13,-99,1444,255045
-46,-153,-112,-42,1529,255020
-52,-23,-35,-62,1484,255028
-6,-59,109,-109,1510,255067
25,-168,164,-73,1536,255022
9,-114,161,-61,1525,255048
-16,-63,131,-90,1481,254989
-15,-124,109,-124,1522,254986
-15,-181,-1,-149,1491,254978
-30,-91,-87,-69,1509,255086
-25,8,-62,-105,1502,255039
19,-42,-91,-74,1477,254987
34,-93,-83,-65,1476,255053
3,-65,-81,-109,1408,255022
31,-50,-149,-132,1454,255078
22,-141,-159,-113,1454,255001
11,-190,-115,-120,1465,255031
-28,-97,-142,-84,1503,255020
1,-36,-140,-104,1534,255045
24,-83,-21,-48,1515,255069
23,-131,69,-127,1519,254927
6,-57,42,-147,1453,254995
29,-36,11,-33,1461,255110
38,-145,23,-49,1476,255043
36,-175,24,-127,1437,254962
-14,-63,-29,-118,1443,255090
17,1,-71,-127,1536,255130
24,-82,-23,-110,1515,255006
19,-97,73,-81,1470,255073
-50,-28,56,-61,1559,255128
-45,-35,8,-69,1558,255048
-76,-110,71,-35,1500,255130
-82,-111,69,-75,1525,255063
-102,24,44,-45,1469,255061
-77,42,45,-61,1497,255024
-58,-23,161,-100,1538,255094
-53,-20,141,-120,1511,255092
-116,53,112,-86,1455,255045
-98,41,38,-114,1472,255018
-117,-61,146,-77,1547,254979
-149,-59,23,-109,1416,254956
-178,63,-72,-120,1458,255115
-132,79,-49,-113,1523,255051
-94,23,91,-63,1494,255026
-106,19,68,-93,1474,255022
-135,106,-23,-115,1480,254970
-115,69,-93,-78,1524,255053
-114,-50,-6,-77,1425,255081
-134,-43,-51,-103,1430,255106
-144,58,-183,-47,1506,255050
-141,66,-80,-147,1542,255056
-118,-37,8,-96,1520,255074
-139,-16,-14,-122,1494,255035
-165,93,-22,-82,1432,255008
-172,61,29,-101,1456,255200
-158,-41,-2,-34,1513,255028
-177,3,-39,-125,1484,255043
-202,124,-52,-133,1510,255085
-169,91,8,-64,1552,255122
-129,21,97,-24,1480,255157
-183,92,146,-73,1419,255046
-230,187,95,-93,1478,255053
-254,152,101,-122,1556,255066
-274,38,201,-169,1491,254994
-293,83,86,-122,1499,255006
-311,184,-34,-80,1455,255115
-290,145,30,-71,1577,255034
-253,46,138,-172,1519,255004
-267,69,37,-125,1515,255038
-291,175,30,-124,1528,255120
-280,70,12,-168,1506,255076
-288,-39,82,-58,1480,254954
-323,19,-20,20,1502,255059
-363,123,-55,-127,1457,255040
-305,60,-11,-159,1534,254999
-265,-22,101,-90,1448,254976
-287,82,16,-55,1488,254931
-289,142,-17,-128,1599,255094
-259,57,57,-109,1534,255009
-269,5,180,-31,1448,254996
-335,113,25,-65,1512,255027
-347,207,-16,-183,1522,254991
-324,102,91,-153,1551,255044
-291,36,120,-124,1530,254999
-321,133,58,-126,1517,255036
-345,206,46,-109,1478,254989
-335,52,31,-102,1500,255017
-339,-27,68,-91,1498,255013
-389,96,22,-81,1496,255007
-331,143,-77,-102,1555,255077
-362,74,34,-55,1530,255006
-331,12,110,-75,1456,255038
-360,105,39,-71,1475,255008
-385,154,15,-144,1563,255090
-373,33,-23,-164,1527,255095
-366,7,-8,-70,1474,255078
-392,98,-113,-145,1486,255094
-396,154,-98,-81,1549,255098
-326,20,-39,-13,1545,255102
-291,-50,44,-22,1528,255114
-296,75,52,-118,1455,255063
-318,112,66,-79,1491,255016
-266,-29,110,-96,1524,255063
-298,-91,201,-80,1366,255044
-312,49,47,-118,1448,255018
-311,88,-49,-139,1521,255025
-250,-26,72,-101,1513,254984
-232,-36,38,14,1385,254927
-230,110,-98,-87,1444,255009
-246,122,-78,-180,1473,255130
-185,-39,19,-74,1473,255115
-236,-61,98,-39,1363,255144
-260,56,-8,-120,1383,255147
-207,65,15,-89,1485,255081
-142,-67,192,-156,1530,255123
-115,-82,273,-106,1498,254977
-128,60,153,-85,1470,255013
-94,38,111,-83,1550,255063
-73,-75,205,-86,1474,255115
-87,-48,161,-41,1443,255138
-86,94,-16,-83,1529,255032
-76,82,-71,-75,1500,255049
-23,-67,17,-98,1479,255053
6,-58,21,-88,1466,255062
-3,47,-107,-60,1488,255075
12,3,-192,-138,1535,255061
32,-125,-167,-74,1453,254996
-4,-89,-135,-92,1396,255060
-18,34,-244,-159,1441,255018
-8,13,-196,-93,1512,255015
69,-127,-47,-103,1550,255027
87,-71,9,-153,1487,255031
91,42,-60,-126,1466,255096
115,-24,-74,-87,1501,255114
129,-114,35,-42,1492,255096
79,-49,52,-53,1439,255103
74,115,-110,-122,1497,254995
104,76,-39,-86,1617,254948
148,-49,160,-34,1492,254969
191,10,87,-107,1450,254961
208,123,33,-201,1475,255019
153,79,32,-156,1537,255038
240,-64,70,-83,1451,255068
200,28,-28,-30,1437,255041
176,173,-129,-88,1449,255103
195,77,-62,-103,1620,254996
241,-37,101,-126,1498,255050
217,-1,85,-72,1450,255107
222,92,-46,-49,1411,255069
227,-23,-21,-32,1486,255093
247,-149,6,-118,1533,254995
171,-54,-6,-114,1533,255042
138,62,-187,-113,1500,255086
161,15,-149,-132,1471,254970
217,-36,0,-92,1407,254956
204,49,5,-120,1374,255003
214,117,-122,-158,1485,254986
203,5,-4,-150,1488,255058
218,-94,39,-128,1479,255017
174,-5,8,-83,1421,255017
145,119,-133,-135,1508,255121
153,34,-80,-149,1455,254940
165,-66,9,-90,1433,254945
156,50,-33,-94,1422,255117
158,125,-103,-114,1486,255054
180,-5,-60,-164,1530,254951
196,-109,-27,-133,1561,254970
143,-5,-67,-102,1564,254970
132,72,-196,-109,1434,255018
163,-12,-113,-38,1441,254995
185,-74,-28,-58,1440,254965
172,-8,-56,-133,1439,255041
140,69,-78,-102,1496,255053
166,-53,-14,-121,1552,255071
149,-142,30,-88,1532,255084
87,-19,31,-95,1446,254915
41,21,0,-165,1480,255038
63,-105,83,-115,1519,255073
69,-164,137,25,1465,255143
34,-23,121,-60,1493,255049
18,-1,95,-67,1529,255106
43,-164,125,-41,1547,255135
23,-194,68,-86,1487,254989
-66,-60,56,-69,1460,255035
-44,-35,-7,-83,1530,255064
-15,-161,110,-79,1476,255093
-8,-159,55,-35,1401,255079
-37,-17,-24,-41,1502,255011
-43,16,-68,-70,1565,255026
-31,-107,-35,-155,1530,255033
-50,-125,-63,-135,1467,255068
-83,10,-77,-126,1489,255073
-104,28,-111,-118,1509,255024
-113,-67,63,-80,1498,255066
-92,-55,84,-52,1577,255058
-86,57,66,-78,1498,254977
-105,28,67,-118,1493,255073
-91,-125,107,-132,1489,255176
-93,-111,19,-90,1402,255018
-135,8,-27,-109,1435,255030
-129,-41,-80,-84,1519,255103
-111,-151,42,-51,1579,255008
-117,-151,84,-120,1459,255104
-111,-29,-2,-80,1504,255081
-90,-67,-48,-95,1488,255055
-83,-236,72,-100,1456,254874
-113,-215,-48,-83,1496,254952
-145,-55,-185,-94,1474,254999
-166,-39,-162,-52,1528,255009
-138,-161,-65,-73,1502,255053
-124,-135,-43,-27,1507,255094
-126,-14,-55,-132,1525,255095
-123,-92,-36,-141,1470,255131
-85,-236,26,-149,1553,255057
-121,-215,-6,-98,1478,255037
-136,-87,-114,-91,1475,255002
-126,-89,-122,-47,1517,255025
-92,-169,-9,-72,1489,255033
-151,-69,15,-74,1457,255085
-113,17,-12,-34,1440,255052
-113,-36,50,-27,1527,255100
-106,-169,103,-73,1465,255036
-135,-162,96,-122,1461,255013
-148,-71,-26,-119,1491,255026
-133,-102,5,-56,1477,254994
-131,-161,12,-65,1537,255094
-143,-64,30,-46,1514,254967
-144,23,-16,-71,1477,255068
-96,-35,-32,-108,1506,255022
-81,-129,48,-80,1499,255045
-77,-82,-26,-78,1531,254989
-101,2,-73,-61,1495,255018
-80,-57,-61,-126,1550,255120
-74,-99,25,-34,1522,255004
-70,-30,-8,11,1518,254988
-53,43,51,-99,1594,255066
-20,-69,73,-108,1481,255114
-31,-149,97,-109,1452,255008
-59,-67,3,-68,1517,254952
-74,10,27,-89,1550,255020
-70,-46,50,-126,1556,255009
-69,-80,84,-123,1480,254987
-115,26,101,-115,1436,255111
-98,75,107,-101,1564,255053
-56,-16,122,-109,1518,254999
-56,-84,95,-155,1506,255012
-94,-17,-4,-140,1522,255036
-105,46,-27,-102,1444,255012
-123,-4,11,-115,1475,254908
-116,-22,-22,-143,1485,255019
-113,38,37,-146,1437,255143
-105,55,80,-205,1468,255199
-86,-31,102,-52,1487,255039
-43,-123,19,-82,1464,255010
-108,-79,19,-149,1536,254962
-123,-67,-29,-114,1524,255048
-112,-137,-12,-111,1536,255035
-128,-154,15,-160,1454,254983
-134,-65,67,-123,1467,255003
-90,-40,84,-120,1483,255045
-78,-130,129,-42,1549,255035
-90,-148,59,-60,1512,255009
-108,-69,-119,-91,1446,255084
-130,-12,-85,-110,1437,255026
-111,-81,-79,-148,1476,255045
-124,-61,-112,-133,1531,254949
-141,64,-57,-120,1490,255011
-151,87,62,-105,1474,255072
-110,-6,24,-108,1479,255102
-137,-16,7,-50,1508,255030
-171,83,-27,-113,1487,255075
-188,72,-66,-87,1518,254989
-183,27,-102,-75,1524,254903
-210,72,-101,-119,1436,254938
-189,154,-38,-125,1448,255012
-169,132,88,-123,1601,255099
-159,55,119,-114,1574,254955
-188,35,87,-190,1478,255077
-231,84,53,-157,1465,254977
-244,43,41,-127,1446,255001
-237,-50,23,-162,1456,255078
-247,-11,38,-139,1497,255077
-262,109,80,-83,1466,254988
-230,85,124,-62,1491,254951
-226,-12,173,-126,1498,254941
-247,14,98,-51,1458,255057
-286,91,47,-94,1512,255104
-296,9,6,-123,1598,254969
-299,-73,-18,-43,1561,254987
-323,-14,-45,-118,1447,254981
-304,75,-33,-124,1435,255048
-269,9,10,-158,1504,255076
-265,-47,132,-94,1484,255059
-282,-29,30,-51,1441,255024
-278,25,-3,-46,1462,254927
-283,-26,38,-48,1505,254975
-309,-82,21,-106,1478,254996
-303,17,-5,-109,1512,255023
-313,120,68,-115,1536,255057
-276,61,120,-132,1557,255110
-236,12,202,-147,1523,255110
-269,82,130,-139,1443,255031
-256,143,24,-100,1473,255007
-257,74,22,-143,1542,254886
-252,16,44,-72,1524,255017
-266,141,-6,-121,1486,255063
-260,215,43,-120,1518,255009
-246,88,119,-137,1571,255076
-260,39,204,-76,1476,254959
-281,80,142,-49,1433,255001
-297,93,20,-105,1475,255103
-270,-41,45,-94,1533,254997
-266,-98,-5,-96,1516,254929
-272,40,-103,-33,1539,255016
-267,92,-96,-30,1542,255033
-234,9,31,-101,1480,255003
-233,-29,25,-102,1457,255012
-265,61,-69,-117,1484,255094
-244,84,-114,-127,1461,255031
-220,-15,-42,-28,1501,255035
-222,-25,-118,-40,1429,254986
-194,88,-146,-81,1451,254936
-142,124,-18,-75,1535,254975
-89,29,87,-157,1546,254957
-65,22,19,-142,1472,255040
-74,104,-18,-91,1491,255093
-83,76,-20,-84,1584,255082
-79,-20,-30,-70,1515,255081
-97,-49,-111,-51,1523,255031
-81,52,-130,-81,1539,255010
-73,71,-78,-126,1481,254980
-28,-18,49,-80,1520,255090
-32,-15,67,-93,1527,255166
-54,46,-45,-117,1531,255043
-73,41,-41,-93,1566,255129
-35,-87,-26,-130,1498,255050
-62,-84,-22,-88,1512,254963
-50,55,-54,-122,1441,255000
-23,46,88,-73,1511,254935
42,-67,204,-71,1495,255058
35,-25,232,-9,1531,255054
22,77,120,-42,1560,255030
6,73,97,-89,1516,255143
52,-47,68,-137,1536,255076
55,-17,-3,-70,1435,254946
43,100,-72,-147,1448,255002
81,77,7,-65,1490,255059
140,-38,108,-47,1478,255142
79,15,150,-55,1493,255034
125,98,20,-147,1524,254999
149,71,-57,-145,1567,254980
153,-33,-59,-105,1640,255004
123,9,-208,-44,1501,255061
137,100,-267,-66,1483,254976
144,63,-110,-82,1532,254919
185,-29,44,-88,1500,255031
184,12,-5,-48,1432,255039
166,95,-70,-81,1466,255034
175,-8,-83,-73,1515,255022
195,-143,-45,-55,1505,255066
164,-80,-100,-82,1500,255013
182,40,-135,-91,1529,254879
188,-3,6,-148,1544,254940
254,-114,35,-117,1457,254916
220,-45,76,-80,1421,255034
231,42,-26,-125,1488,255048
238,-68,-69,-85,1585,255104
283,-144,-97,14,1495,255140
201,-79,-78,-89,1502,255078
239,10,-184,-93,1543,255024
265,-49,-16,-61,1503,254994
276,-111,138,-112,1500,255052
253,-20,141,-86,1474,255093
245,48,14,-108,1538,255052
268,-70,43,-150,1512,255064
266,-127,-33,-78,1417,255034
203,-1,-135,-121,1566,255146
182,91,-212,-107,1566,255072
214,6,-78,-124,1572,255059
219,-45,22,-104,1451,255048
151,96,48,-99,1470,255009
149,104,3,-93,1467,255094
128,-60,74,-88,1472,255063
114,-132,34,-67,1489,254990
89,-34,-87,-99,1459,255021
120,20,-137,-37,1551,255030
151,-85,8,3,1518,255026
136,-124,74,-71,1417,255045
142,-4,19,-127,1469,255019
117,15,10,-115,1502,254965
128,-94,42,-58,1499,255050
118,-172,-6,-157,1432,254931
75,-78,-80,-134,1449,255014
100,-35,-131,-109,1537,254977
106,-105,13,-25,1492,255042
121,-96,86,-51,1437,255073
92,27,68,-39,1555,255065
92,59,-1,-112,1596,255022
86,-63,100,-134,1480,255092
61,-104,92,-77,1478,255071
5,8,-42,-53,1482,255037
9,0,-117,-39,1433,255032
23,-118,76,-52,1496,255005
5,-128,159,-96,1430,255042
-26,4,25,-41,1482,255013
-52,42,-85,-64,1523,255154
-78,-101,8,-134,1517,255065
-93,-89,-58,-100,1474,255061
-139,25,-198,-92,1404,255136
-119,19,-225,-68,1492,255031
-81,-94,-42,-40,1441,255021
-69,-91,42,-113,1430,255052
-112,13,13,-70,1424,255152
-97,-9,-83,-84,1483,255082
-83,-102,-2,-77,1496,255065
-119,-79,-53,-79,1549,255054
-133,18,-153,-80,1416,255018
-127,7,-181,-36,1514,255031
-114,-106,64,-48,1482,255079
-107,-92,86,-37,1503,255125
-139,27,132,-99,1534,254936
-142,3,49,-82,1518,254993
-148,-88,142,-65,1472,255037
-160,-86,11,-78,1400,254965
-174,48,-96,-123,1452,255019
-160,20,-71,-61,1491,255160
-143,-83,91,-39,1448,255087
-166,-49,113,-72,1379,255083
-192,58,118,-98,1441,255033
-200,-4,173,-151,1458,255005
-192,-143,227,-117,1461,255007
-235,-93,61,-127,1488,254964
-261,45,-75,-92,1490,254993
-246,5,-105,-182,1494,255033
-199,-92,15,-152,1401,255027
-227,-32,0,-23,1382,254993
-250,108,-17,-19,1486,255100
-270,13,30,-5,1505,255098
-273,-133,81,-25,1452,255029
-306,-59,-42,-10,1448,254990
-318,52,-92,-85,1537,255050
-287,-24,-100,-118,1524,254997
-254,-118,55,-63,1387,255062
-280,-24,70,-160,1477,255010
-267,68,32,-119,1501,255071
-253,-28,8,-173,1457,255091
-267,-131,78,-103,1498,254998
-315,-89,-41,-94,1514,255038
-331,-6,-121,-77,1456,255053
-285,-108,-121,-141,1461,255035
-276,-171,29,-189,1389,254967
-279,-70,6,-115,1465,254981
-297,13,65,-65,1513,255056
-310,-84,110,-90,1496,255064
-295,-158,180,-105,1478,254984
-314,-40,62,-121,1491,255036
-306,29,13,-106,1457,255083
-268,-76,94,-93,1416,255014
-253,-143,179,-124,1495,255035
-253,-58,125,-97,1520,255132
-254,63,136,-85,1555,255045
-239,-31,133,-114,1568,255119
-238,-115,105,-125,1391,255199
-280,8,-29,-167,1448,255178
-287,62,-77,-148,1495,255078
-254,-33,12,-158,1559,255040
-228,-108,121,-61,1468,255077
-285,-6,126,-112,1479,255081
-257,36,68,-118,1472,255105
-256,-92,129,-93,1530,255116
-244,-138,174,-100,1470,255061
-282,-47,75,-167,1540,255094
-267,-1,-69,-108,1478,255056
-251,-106,-4,-97,1482,255023
-222,-157,92,-51,1459,255006
-237,-36,110,-86,1468,255044
-212,0,129,-135,1545,255051
-198,-104,139,-127,1508,255010
-218,-107,80,-155,1458,255022
-247,31,-77,-137,1463,255061
-243,92,-124,-79,1526,255029
-167,-34,-109,-143,1535,254950
-138,-28,-46,-68,1494,254914
-165,113,-17,-83,1485,255020
-156,99,-28,-54,1548,255136
-129,-44,-4,-165,1475,255021
-170,-61,46,-125,1473,255093
-199,39,-120,-87,1501,255047
-189,12,-151,-156,1501,254901
-156,-85,-53,-163,1486,254975
-150,-60,-8,-188,1508,255015
-152,46,-21,-152,1504,255088
-136,15,16,-73,1463,254953
-106,-96,62,-143,1487,254959
-138,-90,3,-150,1484,255026
