Vx,Vy,Vz,Ax,Ay,Az
38,-46,-385,-1775,-1715,254051
6,14,196,-1736,-1792,254170
-66,105,133,-1739,-1767,254262
-37,185,-423,-1719,-1721,254176
80,248,-213,-1636,-1740,254123
80,267,224,-1653,-1679,254290
-17,221,-29,-1797,-1702,254254
-7,154,-357,-1727,-1756,254146
-4,95,-201,-1723,-1705,254166
-63,87,117,-1660,-1689,254295
-105,97,113,-1780,-1742,254174
18,88,-212,-1752,-1783,254174
112,88,24,-1718,-1664,254199
68,77,425,-1766,-1625,254305
8,64,309,-1798,-1691,254267
-4,48,-104,-1726,-1643,254224
11,26,-127,-1753,-1672,254227
-36,70,243,-1761,-1752,254202
14,72,161,-1797,-1665,254283
101,35,-235,-1724,-1713,254150
177,-8,-24,-1723,-1722,254157
142,-111,480,-1680,-1701,254221
27,-214,214,-1725,-1756,254297
44,-284,-273,-1757,-1721,254137
49,-282,-100,-1695,-1730,254031
0,-176,215,-1721,-1676,254255
-28,-61,-147,-1734,-1757,254258
76,-17,-575,-1783,-1677,254181
179,59,-235,-1698,-1628,254179
93,35,103,-1635,-1804,254204
31,-11,-67,-1663,-1804,254340
80,-53,-293,-1667,-1695,254232
2,-120,-115,-1718,-1815,254172
-102,-66,206,-1731,-1724,254262
-139,-86,-52,-1752,-1692,254181
10,-99,-302,-1702,-1743,254204
103,-56,35,-1717,-1728,254236
-15,-19,412,-1703,-1679,254267
-68,25,117,-1751,-1724,254301
-89,60,-196,-1787,-1674,254207
-58,114,108,-1754,-1765,254106
-170,193,267,-1739,-1759,254152
-200,217,-103,-1764,-1724,254220
-27,191,-297,-1770,-1648,254245
55,122,64,-1741,-1730,254164
5,104,379,-1695,-1796,254240
-2,59,121,-1737,-1727,254208
94,35,-63,-1802,-1667,254221
8,76,237,-1656,-1712,254201
-227,144,310,-1690,-1682,254278
-262,199,-82,-1765,-1748,254401
-76,195,-317,-1689,-1754,254295
67,208,-7,-1651,-1675,254236
-14,214,203,-1640,-1644,254360
-96,177,-83,-1726,-1740,254255
-49,116,-214,-1729,-1694,254127
-71,103,181,-1760,-1727,254207
-223,113,271,-1803,-1726,254339
-223,85,-189,-1759,-1720,254356
-74,32,-290,-1750,-1792,254182
-11,-29,133,-1742,-1820,254072
-87,-38,185,-1742,-1794,254235
-119,-33,-234,-1735,-1752,254295
-45,8,-250,-1726,-1705,254179
-105,83,98,-1687,-1737,254191
-282,119,13,-1773,-1682,254288
-332,91,-428,-1793,-1674,254288
-184,45,-392,-1802,-1770,254138
-81,-44,40,-1726,-1757,254281
-23,-102,188,-1713,-1741,254263
51,-128,-95,-1690,-1754,254229
105,-118,-50,-1733,-1740,254170
82,-25,367,-1821,-1746,254189
-9,64,300,-1795,-1722,254329
-57,121,-244,-1784,-1728,254350
-99,130,-331,-1767,-1702,254170
-69,102,146,-1814,-1712,254220
-23,48,114,-1714,-1747,254284
118,13,-313,-1721,-1719,254212
159,-1,-213,-1672,-1707,254243
89,-25,248,-1719,-1777,254230
-10,-25,150,-1793,-1763,254276
-19,-56,-311,-1735,-1742,254226
40,-51,-220,-1662,-1786,254140
42,-8,174,-1707,-1711,254204
45,8,105,-1745,-1630,254198
60,27,-247,-1789,-1597,254149
100,59,-98,-1816,-1682,254167
53,108,296,-1711,-1741,254303
21,154,163,-1744,-1760,254303
104,123,-179,-1813,-1687,254213
87,77,-25,-1786,-1667,254208
166,-18,291,-1734,-1756,254321
194,-74,152,-1753,-1723,254173
297,-109,-162,-1686,-1712,254203
304,-62,23,-1705,-1738,254225
229,-12,330,-1696,-1641,254195
141,21,148,-1749,-1753,254231
130,45,-189,-1763,-1751,254153
102,56,-20,-1733,-1727,254099
20,54,224,-1707,-1752,254253
-15,9,9,-1714,-1739,254284
45,-57,-267,-1697,-1721,254193
92,-76,8,-1725,-1783,254184
27,-63,377,-1762,-1808,254338
-35,-67,150,-1680,-1731,254342
-34,-85,-185,-1650,-1671,254264
-29,-99,59,-1730,-1707,254215
-89,-111,321,-1726,-1650,254293
-89,-98,-74,-1770,-1722,254286
25,-88,-470,-1747,-1775,254169
78,-41,-158,-1672,-1700,254186
28,13,154,-1657,-1681,254295
-54,33,-155,-1768,-1658,254253
-14,2,-304,-1780,-1704,254252
-16,-8,87,-1734,-1747,254169
-81,-43,238,-1777,-1696,254203
-112,-80,-155,-1757,-1776,254231
-64,-90,-349,-1691,-1753,254103
-61,-56,55,-1695,-1737,254201
-184,34,248,-1703,-1691,254238
-264,126,-75,-1712,-1659,254202
-232,170,-204,-1723,-1722,254222
-215,195,123,-1726,-1698,254152
-224,185,275,-1754,-1660,254222
-192,129,-117,-1728,-1721,254247
-108,97,-288,-1743,-1785,254147
-84,82,109,-1768,-1748,254285
-134,80,264,-1736,-1750,254222
-98,89,-91,-1703,-1741,254192
-45,88,-186,-1703,-1717,254229
-70,109,219,-1723,-1691,254261
-169,126,228,-1677,-1716,254266
-176,106,-260,-1765,-1717,254153
-69,90,-386,-1726,-1774,254194
-58,110,-8,-1717,-1777,254225
-103,164,44,-1691,-1730,254392
-45,176,-258,-1734,-1716,254201
58,151,-259,-1766,-1688,254147
40,105,159,-1752,-1686,254223
-61,60,208,-1725,-1697,254274
-90,-8,-220,-1712,-1751,254312
-33,-39,-277,-1739,-1749,254294
-62,-18,96,-1703,-1826,254197
-92,29,131,-1694,-1699,254251
-37,77,-285,-1735,-1733,254218
8,116,-241,-1749,-1683,254211
-63,133,217,-1750,-1626,254278
-184,78,223,-1795,-1756,254336
-165,-35,-127,-1754,-1814,254287
-142,-119,-49,-1703,-1756,254223
-212,-124,314,-1706,-1803,254254
-221,-103,221,-1746,-1737,254265
-73,-70,-94,-1712,-1720,254155
68,-8,55,-1702,-1703,254178
24,61,380,-1698,-1725,254204
-43,71,251,-1731,-1753,254267
-4,22,-172,-1714,-1733,254232
27,-22,-141,-1722,-1736,254218
-70,-4,142,-1746,-1769,254193
-192,20,41,-1779,-1754,254255
-139,9,-265,-1809,-1667,254166
-50,-20,-14,-1854,-1633,254323
-36,-5,446,-1770,-1682,254276
-50,-33,309,-1726,-1713,254284
12,-66,-84,-1649,-1779,254283
-15,-68,100,-1674,-1696,254231
-155,-42,363,-1697,-1743,254287
-201,-18,-23,-1719,-1709,254297
-78,54,-289,-1744,-1788,254118
1,127,-126,-1694,-1705,254185
-3,181,123,-1738,-1740,254232
-97,189,62,-1801,-1773,254291
35,87,-291,-1750,-1769,254224
145,-20,-203,-1723,-1803,254198
98,-37,196,-1726,-1736,254227
38,-43,-161,-1620,-1680,254292
121,-55,-588,-1742,-1709,254244
215,7,-108,-1685,-1761,254253
210,57,254,-1705,-1748,254374
234,83,-93,-1756,-1724,254375
254,77,-271,-1796,-1695,254259
209,41,24,-1763,-1739,254122
141,-43,159,-1758,-1725,254207
98,-62,-82,-1667,-1691,254282
162,-43,-341,-1675,-1685,254153
227,-37,-200,-1790,-1704,254146
205,8,243,-1714,-1797,254168
190,8,169,-1735,-1735,254281
251,-93,-329,-1732,-1744,254314
264,-114,76,-1780,-1762,254244
102,-50,493,-1760,-1723,254337
-63,-45,-276,-1722,-1755,254257
-34,10,-599,-1725,-1667,254142
-5,125,126,-1688,-1751,254197
-67,162,85,-1720,-1742,254349
-5,148,-240,-1707,-1647,254289
136,91,123,-1731,-1728,254175
-69,7,217,-1713,-1724,254168
-152,-37,149,-1801,-1727,254244
-106,-29,183,-1772,-1766,254137
-64,41,-183,-1697,-1730,254193
-57,127,-259,-1657,-1700,254155
-7,216,457,-1694,-1697,254279
28,239,133,-1726,-1716,254450
17,217,-426,-1753,-1756,254169
34,192,388,-1765,-1737,254071
-127,129,640,-1744,-1736,254324
-324,40,-379,-1735,-1766,254285
-297,9,-329,-1819,-1776,254054
-221,24,450,-1737,-1809,254285
-222,19,62,-1722,-1745,254338
-181,48,-390,-1752,-1707,254032
-26,22,149,-1737,-1778,254107
-62,30,430,-1753,-1781,254344
-146,40,45,-1765,-1733,254287
-219,102,-229,-1815,-1739,254208
-202,136,-206,-1754,-1694,254285
-189,144,92,-1699,-1738,254281
-206,117,-55,-1695,-1676,254144
-182,48,-273,-1726,-1744,254167
-30,-41,-69,-1662,-1714,254172
-27,-82,347,-1718,-1722,254302
-179,-117,51,-1690,-1811,254325
-179,-84,-179,-1717,-1768,254242
-64,-49,-124,-1771,-1785,254266
15,0,66,-1799,-1742,254284
-140,56,-138,-1731,-1671,254259
19,36,-269,-1670,-1751,254302
212,-48,-108,-1709,-1754,254184
128,-77,164,-1678,-1715,254254
-66,-31,55,-1675,-1738,254353
-42,-42,-105,-1760,-1780,254229
54,-43,-132,-1723,-1765,254193
-183,3,27,-1733,-1700,254247
-222,-5,-3,-1796,-1751,254190
-31,-107,-41,-1710,-1728,254211
173,-135,-21,-1688,-1670,254284
-35,-77,286,-1738,-1666,254297
-88,-29,279,-1821,-1711,254305
43,38,66,-1819,-1722,254273
114,107,-122,-1734,-1668,254181
-165,201,-3,-1760,-1719,254203
-235,196,116,-1781,-1678,254198
96,79,74,-1775,-1673,254213
225,-25,-85,-1702,-1703,254236
7,19,113,-1689,-1674,254194
-104,77,452,-1847,-1652,254355
176,64,39,-1777,-1745,254459
178,66,-462,-1675,-1746,254230
-158,199,-10,-1727,-1695,254220
-282,186,203,-1795,-1696,254280
15,27,-544,-1736,-1652,254307
138,-60,-562,-1721,-1721,254195
-105,15,325,-1738,-1768,254208
-146,35,205,-1805,-1773,254351
226,-56,-474,-1702,-1768,254237
285,-37,-139,-1643,-1770,254233
-109,47,251,-1709,-1703,254234
-239,19,-102,-1805,-1660,254200
242,-154,-304,-1847,-1713,254171
351,-162,44,-1678,-1742,254144
-11,-71,145,-1703,-1724,254250
-146,-40,13,-1818,-1646,254263
235,-88,-66,-1759,-1726,254213
201,4,-112,-1668,-1732,254154
-196,127,-26,-1645,-1637,254178
-273,135,91,-1883,-1639,254239
147,-35,-184,-1795,-1663,254241
221,-125,-201,-1676,-1785,254180
-95,-75,231,-1781,-1849,254265
-109,-67,352,-1778,-1718,254321
226,-97,-179,-1686,-1751,254353
89,29,-58,-1666,-1802,254112
-371,185,413,-1682,-1695,254249
-413,221,141,-1743,-1764,254298
5,99,-414,-1718,-1785,254155
210,68,30,-1640,-1768,254211
-88,108,415,-1635,-1770,254369
-68,61,-10,-1750,-1732,254225
374,-63,-163,-1737,-1703,254062
362,-11,294,-1669,-1822,254197
-206,135,316,-1729,-1729,254231
-273,137,-96,-1801,-1647,254351
109,18,-110,-1764,-1668,254135
79,5,92,-1723,-1697,254204
-281,93,57,-1800,-1744,254284
-109,86,-105,-1905,-1780,254298
272,30,-192,-1678,-1777,254150
82,79,-70,-1652,-1753,254134
-315,190,176,-1742,-1753,254271
-239,148,52,-1764,-1785,254287
90,23,-298,-1731,-1765,254179
2,25,-63,-1681,-1729,254214
-211,34,238,-1747,-1721,254229
-70,-25,10,-1743,-1727,254261
202,-65,-287,-1677,-1727,254200
42,37,59,-1691,-1740,254163
-280,170,344,-1772,-1691,254258
-272,140,-136,-1809,-1725,254196
-61,61,-393,-1725,-1693,254146
-230,53,-6,-1705,-1776,254151
-407,76,180,-1776,-1731,254387
-178,-25,-239,-1739,-1667,254255
121,-103,-325,-1663,-1737,254276
-50,-41,157,-1688,-1719,254176
-274,36,358,-1743,-1749,254361
6,22,-34,-1742,-1693,254334
159,3,-181,-1680,-1735,254228
-158,90,104,-1694,-1737,254087
-351,117,211,-1709,-1714,254286
18,26,-152,-1781,-1734,254212
213,11,-299,-1654,-1716,254175
-36,106,120,-1637,-1645,254230
-176,143,341,-1737,-1678,254275
114,17,-167,-1728,-1757,254282
157,-39,-354,-1674,-1713,254126
-140,28,90,-1667,-1702,254098
-174,27,174,-1744,-1664,254212
228,-64,-368,-1751,-1696,254223
262,-74,-386,-1696,-1730,254052
-50,68,171,-1783,-1672,254206
-120,117,209,-1819,-1678,254274
165,68,-337,-1752,-1700,254262
64,88,-244,-1729,-1697,254229
-298,130,359,-1779,-1650,254291
-226,10,334,-1834,-1745,254363
182,-144,-271,-1676,-1796,254222
165,-135,-158,-1643,-1729,254183
-12,-14,522,-1716,-1683,254330
87,-28,405,-1734,-1712,254319
355,-73,-280,-1682,-1771,254296
134,-5,-56,-1674,-1700,254204
-132,81,509,-1761,-1735,254245
-4,0,92,-1763,-1636,254353
262,-98,-615,-1690,-1680,254161
43,-78,-202,-1687,-1753,254186
-194,-32,364,-1710,-1664,254307
-36,-120,-45,-1745,-1663,254350
145,-182,-504,-1700,-1699,254220
-163,-103,20,-1656,-1755,254133
-400,-84,477,-1723,-1705,254246
-100,-179,-32,-1753,-1656,254312
100,-194,-465,-1679,-1777,254268
-136,-56,-95,-1703,-1780,254236
-237,71,454,-1809,-1767,254305
146,77,4,-1670,-1745,254444
181,98,-480,-1650,-1765,254237
-157,220,102,-1672,-1733,254106
-278,186,749,-1800,-1681,254264
103,19,79,-1726,-1635,254317
105,-102,-545,-1627,-1708,254121
-131,-51,230,-1715,-1723,254119
-117,-46,642,-1826,-1648,254354
250,-59,-274,-1723,-1673,254236
176,87,-590,-1708,-1651,254055
-99,298,386,-1700,-1596,254123
-129,330,541,-1807,-1642,254461
123,190,-424,-1754,-1773,254268
-5,165,-524,-1682,-1691,254103
-237,163,329,-1713,-1749,254143
-146,110,334,-1761,-1776,254369
156,26,-475,-1706,-1670,254168
94,114,-444,-1678,-1644,254112
-148,174,481,-1718,-1629,254325
-90,119,362,-1798,-1721,254412
42,-10,-425,-1723,-1776,254243
-47,13,-320,-1630,-1678,254091
-216,55,432,-1735,-1630,254218
-49,61,63,-1729,-1715,254377
51,92,-713,-1706,-1758,254279
38,232,-294,-1657,-1777,254250
-121,290,438,-1640,-1705,254384
-20,223,96,-1665,-1716,254346
-63,101,-505,-1752,-1792,254213
-100,-2,-49,-1706,-1744,254180
-100,-81,436,-1732,-1715,254302
91,-146,-102,-1719,-1732,254394
111,-75,-655,-1682,-1776,254243
15,77,-111,-1766,-1651,254137
-53,192,311,-1825,-1653,254275
-46,204,-158,-1752,-1682,254376
-85,208,-509,-1827,-1706,254248
-119,156,162,-1768,-1691,254179
-10,44,466,-1732,-1790,254303
-41,-73,-113,-1670,-1771,254329
-97,-88,-360,-1699,-1835,254180
-110,-47,321,-1744,-1720,254134
71,-52,537,-1741,-1744,254315
17,-36,-6,-1711,-1644,254218
-110,-5,-116,-1771,-1699,254198
-220,-38,448,-1812,-1736,254124
-48,-140,460,-1751,-1734,254199
-88,-162,-210,-1696,-1803,254347
-177,-60,-347,-1736,-1732,254285
-200,-4,160,-1747,-1634,254280
23,-31,232,-1773,-1695,254378
-53,-40,-213,-1724,-1792,254286
-201,-41,-157,-1676,-1719,254213
-191,-101,351,-1774,-1715,254221
121,-237,360,-1748,-1697,254405
1,-227,-164,-1673,-1747,254321
-139,-144,-270,-1688,-1702,254166
-75,-43,140,-1749,-1666,254256
201,-15,93,-1724,-1716,254306
195,86,-277,-1615,-1649,254246
-93,173,-225,-1644,-1665,254180
-127,146,332,-1776,-1730,254299
108,4,319,-1770,-1740,254428
172,-67,-117,-1701,-1732,254308
-39,-15,-254,-1718,-1757,254126
-21,-24,100,-1785,-1724,254285
205,-77,86,-1762,-1793,254354
249,-89,-239,-1723,-1807,254212
-44,34,-177,-1743,-1770,254187
-156,78,196,-1746,-1722,254221
1,61,183,-1810,-1671,254216
96,48,-249,-1762,-1683,254209
-72,125,-388,-1819,-1747,254159
-98,138,-60,-1773,-1797,254164
56,83,-21,-1700,-1745,254228
152,20,-362,-1639,-1762,254163
-2,46,-208,-1683,-1760,254192
-97,73,219,-1684,-1702,254335
-20,36,272,-1727,-1717,254323
99,45,-87,-1712,-1789,254335
73,81,-238,-1756,-1734,254200
66,106,39,-1774,-1713,254191
83,130,110,-1661,-1753,254224
174,147,-392,-1684,-1746,254292
209,180,-314,-1694,-1659,254240
169,201,147,-1768,-1727,254217
103,184,309,-1740,-1739,254305
-3,122,-130,-1698,-1740,254201
-32,57,-201,-1743,-1762,254220
-47,15,260,-1741,-1743,254246
-66,-32,213,-1778,-1752,254317
5,-34,-103,-1773,-1757,254246
176,-4,2,-1805,-1735,254130
210,83,390,-1764,-1674,254177
73,126,253,-1819,-1661,254336
-19,157,4,-1761,-1712,254310
-14,95,-51,-1707,-1645,254164
-48,58,267,-1731,-1756,254370
-183,4,107,-1724,-1706,254341
-175,-51,-188,-1745,-1755,254224
29,-90,-55,-1825,-1763,254147
76,-113,276,-1744,-1706,254246
-121,-65,107,-1753,-1698,254340
-241,-57,-210,-1752,-1723,254262
-149,-68,-152,-1745,-1751,254183
-143,-41,71,-1726,-1723,254270
-303,9,-145,-1705,-1710,254218
-349,56,-404,-1803,-1712,254235
-16,-6,-255,-1859,-1823,254192
139,-53,51,-1736,-1754,254201
-99,-26,-14,-1684,-1683,254282
-236,-15,-131,-1803,-1707,254238
-57,-103,122,-1740,-1723,254176
41,-153,287,-1712,-1732,254234
-231,-114,45,-1767,-1740,254290
-361,-20,-219,-1747,-1676,254182
-71,-2,4,-1766,-1657,254091
131,2,188,-1707,-1673,254175
-86,74,-73,-1660,-1714,254250
-293,122,-179,-1736,-1694,254311
-106,86,196,-1749,-1650,254294
71,53,273,-1713,-1693,254348
-79,66,-133,-1760,-1694,254217
-217,112,-209,-1721,-1709,254125
30,19,114,-1734,-1765,254274
289,-50,268,-1656,-1699,254273
106,-29,-112,-1685,-1678,254155
-124,78,-135,-1786,-1711,254180
21,99,215,-1812,-1688,254298
166,108,277,-1705,-1727,254356
-49,218,-151,-1728,-1815,254236
-305,298,-383,-1805,-1692,254201
-42,234,-40,-1790,-1750,254232
307,102,196,-1774,-1849,254172
211,47,-229,-1706,-1857,254210
-30,36,-347,-1665,-1746,254152
45,10,252,-1798,-1765,254185
111,0,288,-1746,-1727,254249
-103,104,-234,-1666,-1653,254256
-319,194,-333,-1734,-1622,254231
-161,150,64,-1715,-1684,254209
85,79,173,-1691,-1737,254330
41,58,-211,-1649,-1727,254366
-84,143,-219,-1677,-1684,254216
6,111,234,-1798,-1650,254238
108,43,274,-1716,-1654,254325
-30,43,-168,-1697,-1729,254280
-219,61,-293,-1767,-1768,254225
-125,43,65,-1833,-1720,254182
99,-29,223,-1741,-1766,254214
116,-63,-161,-1634,-1748,254149
31,-53,-184,-1734,-1704,254151
66,-61,228,-1698,-1682,254174
109,-30,281,-1677,-1704,254223
15,17,-176,-1752,-1694,254246
-147,47,-207,-1793,-1746,254324
-168,2,110,-1730,-1768,254314
-77,-72,225,-1762,-1700,254341
55,-130,-122,-1743,-1718,254202
74,-99,-60,-1705,-1700,254086
96,-101,318,-1768,-1732,254273
115,-143,323,-1667,-1680,254303
51,-125,-5,-1645,-1739,254309
-84,-84,-228,-1745,-1722,254172
-168,-22,54,-1742,-1747,254223
-152,17,205,-1731,-1729,254374
-84,-26,-409,-1727,-1754,254247
-11,-42,-338,-1748,-1738,254259
-6,-47,221,-1754,-1691,254276
-88,-54,179,-1728,-1744,254310
-83,-41,-52,-1814,-1781,254288
44,-116,-91,-1780,-1779,254283
6,-136,176,-1723,-1712,254249
-219,-51,267,-1642,-1665,254198
-260,2,-324,-1717,-1728,254161
27,26,-252,-1701,-1731,254120
231,53,243,-1626,-1679,254233
121,13,-152,-1652,-1712,254356
-63,15,-182,-1784,-1683,254213
-96,-16,54,-1690,-1679,254274
-121,-61,-21,-1683,-1783,254228
-169,-42,71,-1686,-1782,254223
-85,-17,-71,-1717,-1725,254233
98,-72,-280,-1767,-1728,254177
78,50,155,-1682,-1701,254183
127,96,221,-1693,-1647,254255
177,67,-182,-1701,-1675,254192
118,93,-71,-1747,-1730,254198
-80,86,251,-1776,-1737,254288
-212,112,145,-1815,-1704,254276
-178,176,-268,-1777,-1693,254131
-6,180,-158,-1766,-1687,254167
68,173,174,-1736,-1764,254267
-62,88,50,-1695,-1773,254260
-78,10,-80,-1761,-1762,254198
79,-28,63,-1697,-1769,254182
74,-29,310,-1742,-1735,254247
-35,79,179,-1783,-1722,254264
-98,141,-346,-1742,-1633,254232
-91,173,-265,-1771,-1680,254238
-39,298,326,-1810,-1687,254258
-98,295,-134,-1814,-1754,254220
-125,256,-641,-1763,-1756,254045
-9,211,204,-1705,-1721,254129
25,85,469,-1714,-1701,254359
-105,75,-294,-1755,-1667,254213
-160,106,-285,-1853,-1680,254146
-39,136,233,-1800,-1771,254262
25,86,-38,-1716,-1834,254315
-20,66,-167,-1736,-1766,254197
54,134,-43,-1753,-1707,254135
111,39,-180,-1702,-1725,254195
21,69,273,-1737,-1807,254173
-204,128,181,-1744,-1714,254297
-274,42,-493,-1702,-1700,254119
-62,34,-85,-1771,-1771,254103
-39,37,501,-1765,-1714,254259
-208,-25,-216,-1694,-1726,254363
-50,-74,-472,-1782,-1776,254199
127,-155,431,-1717,-1854,254098
-36,-89,463,-1743,-1753,254321
-214,-31,-285,-1751,-1704,254234
-143,-24,-58,-1791,-1737,254160
-51,77,358,-1712,-1715,254278
-181,2,-151,-1727,-1690,254308
-190,78,-225,-1741,-1697,254200
-9,93,99,-1786,-1698,254259
151,-58,26,-1763,-1688,254249
5,-67,71,-1717,-1739,254321
-270,-90,199,-1792,-1736,254263
-221,-120,96,-1823,-1635,254216
2,-179,1,-1707,-1676,254209
-104,-163,73,-1679,-1699,254260
-204,-43,20,-1748,-1722,254172
-7,-80,-259,-1794,-1735,254135
190,-62,-121,-1654,-1750,254232
82,117,265,-1696,-1744,254262
-139,123,-169,-1759,-1702,254321
-71,90,-364,-1724,-1673,254214
-6,44,281,-1689,-1703,254140
-114,-12,118,-1700,-1739,254306
-59,-30,-417,-1776,-1731,254251
212,-98,-78,-1840,-1769,254113
341,-101,159,-1747,-1717,254215
218,-69,34,-1736,-1686,254293
93,-7,32,-1821,-1678,254294
176,97,80,-1797,-1678,254351
228,101,24,-1721,-1745,254311
113,112,63,-1704,-1768,254241
-71,109,-205,-1759,-1683,254203
47,10,-246,-1787,-1744,254166
240,-76,241,-1691,-1787,254141
107,-113,161,-1729,-1749,254237
-3,-64,-116,-1734,-1628,254241
28,-96,92,-1803,-1715,254268
-49,-109,263,-1747,-1734,254263
-90,-14,94,-1702,-1762,254213
-20,-11,-202,-1710,-1678,254098
111,-58,-221,-1738,-1750,254134
99,-38,7,-1695,-1766,254198
-6,-15,39,-1689,-1781,254248
-25,19,-150,-1755,-1748,254219
-50,96,-176,-1789,-1703,254147
-70,113,220,-1687,-1701,254205
-191,146,300,-1663,-1629,254329
-143,73,-247,-1718,-1662,254291
140,-3,-229,-1730,-1702,254189
320,21,279,-1590,-1724,254262
139,52,244,-1637,-1703,254251
-17,85,-326,-1726,-1742,254210
-74,127,-94,-1765,-1730,254251
-229,217,504,-1699,-1723,254373
-338,297,50,-1720,-1782,254329
-109,290,-511,-1667,-1779,254089
87,290,-184,-1698,-1806,254197
-47,224,154,-1647,-1704,254379
-99,103,-166,-1793,-1724,254282
189,20,-314,-1730,-1759,254226
209,12,133,-1746,-1708,254261
-155,68,214,-1797,-1697,254305
-324,117,-15,-1775,-1692,254226
-89,143,-141,-1730,-1722,254157
82,118,-178,-1687,-1717,254250
14,134,-161,-1757,-1742,254265
-21,123,-190,-1813,-1736,254202
44,8,-106,-1660,-1642,254185
47,-26,-16,-1695,-1747,254208
-61,-34,143,-1689,-1730,254211
-58,36,337,-1760,-1745,254210
-43,30,-16,-1722,-1702,254353
-116,-33,-256,-1747,-1708,254284
-114,-5,210,-1795,-1773,254291
0,-52,290,-1722,-1740,254307
139,-91,-336,-1746,-1719,254232
122,-77,-282,-1684,-1677,254189
12,-18,641,-1683,-1731,254307
-122,5,312,-1801,-1724,254421
-151,-36,-591,-1784,-1704,254097
-64,20,107,-1768,-1723,254051
-210,40,715,-1746,-1743,254291
-346,-22,-293,-1838,-1675,254366
-24,-116,-600,-1795,-1711,254107
380,-103,640,-1704,-1720,254240
227,-33,527,-1702,-1750,254307
-121,-30,-628,-1713,-1655,254257
4,26,-6,-1815,-1679,254066
-29,21,661,-1678,-1715,254314
-394,33,-288,-1714,-1709,254340
-372,86,-619,-1847,-1741,254124
-35,33,322,-1771,-1781,254137
-10,-25,231,-1703,-1800,254203
-136,-76,-351,-1698,-1818,254055
43,-87,245,-1765,-1725,254060
138,-81,305,-1714,-1753,254316
-107,-74,-353,-1767,-1770,254168
-165,-31,-74,-1727,-1707,254204
31,-33,238,-1755,-1719,254230
100,-55,-550,-1689,-1750,254315
13,-40,-465,-1626,-1699,254127
58,-1,552,-1693,-1656,254216
40,-21,-41,-1737,-1699,254301
-32,-77,-774,-1832,-1765,254140
45,-39,252,-1796,-1751,254080
85,-16,579,-1745,-1761,254268
-9,-26,-593,-1705,-1729,254341
23,-60,-529,-1703,-1719,254047
195,-72,686,-1731,-1729,254256
155,-48,323,-1681,-1739,254330
43,-35,-591,-1750,-1680,254094
60,32,-27,-1723,-1644,254122
55,92,583,-1689,-1719,254303
-74,119,-97,-1737,-1707,254358
-14,117,-558,-1791,-1743,254094
215,108,25,-1767,-1708,254126
188,95,304,-1699,-1682,254296
14,49,8,-1781,-1675,254295
35,11,-70,-1770,-1661,254297
172,17,195,-1796,-1729,254083
12,86,354,-1814,-1747,254168
-178,182,172,-1787,-1700,254183
-91,189,-188,-1790,-1693,254220
28,220,-200,-1696,-1741,254281
-82,280,161,-1658,-1797,254202
-157,297,84,-1723,-1775,254283
7,223,-181,-1796,-1768,254165
-81,120,-7,-1783,-1763,254214
-412,71,322,-1750,-1687,254285
-407,11,179,-1783,-1711,254317
11,-24,-133,-1697,-1709,254174
126,42,-67,-1663,-1704,254164
-167,58,66,-1665,-1668,254247
-141,26,7,-1794,-1794,254290
132,10,-211,-1731,-1745,254294
75,101,-80,-1684,-1715,254123
-160,224,269,-1730,-1720,254317
-237,179,104,-1748,-1741,254298
-264,78,-329,-1742,-1681,254234
-387,31,-117,-1759,-1754,254300
-312,27,290,-1801,-1776,254303
-66,49,-31,-1673,-1700,254259
18,-31,-382,-1669,-1708,254211
-14,-95,-21,-1760,-1747,254211
6,-135,312,-1765,-1756,254313
9,-47,-42,-1730,-1695,254289
-138,90,-373,-1765,-1650,254301
-316,153,-118,-1744,-1626,254138
-221,92,85,-1645,-1756,254223
-153,7,-153,-1660,-1765,254291
-137,12,-455,-1698,-1758,254243
16,39,-86,-1828,-1734,254277
70,32,462,-1722,-1714,254325
-142,-25,77,-1668,-1731,254366
-237,-116,-426,-1789,-1698,254141
-99,-95,177,-1800,-1788,254124
-22,-12,589,-1807,-1729,254296
-150,39,-247,-1710,-1713,254325
-47,-22,-537,-1734,-1662,254189
147,-63,313,-1689,-1681,254276
88,-36,449,-1677,-1750,254309
-16,61,-323,-1621,-1770,254172
88,122,-281,-1752,-1761,254091
121,74,365,-1726,-1730,254169
-71,-31,148,-1795,-1740,254288
40,-118,-431,-1817,-1756,254211
351,-95,-161,-1747,-1720,254126
342,-30,267,-1666,-1745,254247
34,19,110,-1679,-1658,254163
79,-6,-143,-1763,-1667,254228
249,19,-9,-1709,-1738,254211
96,118,201,-1759,-1754,254252
-3,197,37,-1846,-1706,254145
157,136,-196,-1806,-1673,254126
273,18,-183,-1723,-1686,254154
67,-9,112,-1752,-1633,254228
38,8,261,-1773,-1676,254311
166,43,43,-1791,-1698,254263
129,60,-50,-1698,-1642,254181
-104,84,134,-1691,-1671,254248
-43,64,178,-1752,-1700,254269
176,83,-78,-1760,-1752,254199
159,118,-287,-1715,-1660,254185
75,115,-79,-1705,-1687,254246
66,37,150,-1761,-1734,254170
96,-34,-60,-1758,-1741,254177
-25,27,-235,-1727,-1711,254246
-116,97,173,-1717,-1725,254214
-103,97,336,-1699,-1655,254315
-93,-31,-240,-1706,-1692,254384
-11,-129,-346,-1712,-1661,254212
64,-76,312,-1711,-1793,254236
-6,-1,241,-1721,-1801,254333
-100,65,-475,-1720,-1768,254289
-80,87,-323,-1708,-1629,254081
-95,86,354,-1754,-1651,254201
-252,109,40,-1759,-1771,254403
-226,90,-515,-1803,-1741,254359
-45,36,-27,-1741,-1717,254232
9,-64,325,-1683,-1709,254318
-20,-155,-110,-1668,-1702,254275
155,-175,-250,-1746,-1737,254070
189,-85,191,-1782,-1755,254195
-74,22,281,-1727,-1646,254287
-218,45,18,-1663,-1725,254324
-37,2,-40,-1754,-1715,254219
87,-21,12,-1670,-1770,254225
-30,18,16,-1689,-1765,254313
0,13,-75,-1813,-1729,254260
125,-54,-196,-1759,-1673,254331
58,-76,-74,-1738,-1728,254265
-149,-34,290,-1768,-1775,254208
-181,-21,210,-1783,-1687,254312
-97,-51,-127,-1733,-1683,254287
-104,-77,40,-1688,-1680,254119
-125,-109,250,-1700,-1704,254302
-71,-99,-35,-1768,-1702,254219
7,-47,-405,-1732,-1751,254138
-99,49,-153,-1740,-1737,254090
-152,109,233,-1728,-1711,254324
-127,91,60,-1692,-1700,254301
-67,46,-215,-1693,-1739,254267
-46,7,118,-1681,-1764,254221
-97,-66,282,-1738,-1741,254300
-54,-160,-171,-1708,-1709,254231
55,-193,-342,-1714,-1811,254197
146,-119,151,-1704,-1853,254246
41,45,352,-1765,-1738,254263
-54,128,-42,-1697,-1735,254229
-61,117,-157,-1699,-1688,254150
-44,102,160,-1701,-1710,254243
-106,83,186,-1770,-1719,254290
-77,94,-211,-1707,-1681,254222
5,79,-311,-1670,-1650,254116
-34,39,39,-1674,-1716,254149
-117,14,254,-1738,-1766,254230
-132,-12,17,-1749,-1755,254235
-68,7,-89,-1708,-1736,254267
-171,80,187,-1733,-1703,254269
-248,110,250,-1760,-1679,254290
-207,87,-332,-1807,-1748,254190
-70,126,-420,-1737,-1797,254125
-31,183,112,-1758,-1740,254278
-147,218,113,-1742,-1721,254335
-191,164,-306,-1745,-1680,254207
-144,81,-55,-1734,-1780,254090
-130,5,411,-1731,-1781,254118
-198,-3,108,-1763,-1764,254220
-130,-8,-322,-1735,-1740,254209
-44,-6,-133,-1722,-1753,254183
-41,-12,85,-1695,-1716,254216
-27,-12,-55,-1695,-1747,254157
58,74,-183,-1745,-1715,254254
38,164,-77,-1719,-1729,254244
-94,232,78,-1673,-1754,254254
-150,212,32,-1804,-1678,254233
-85,141,-197,-1739,-1728,254263
-15,119,-216,-1781,-1732,254184
45,97,91,-1726,-1658,254169
116,47,186,-1666,-1702,254252
127,-23,-133,-1724,-1760,254249
61,-31,15,-1710,-1764,254260
41,46,543,-1750,-1722,254223
35,133,374,-1731,-1697,254244
39,170,-218,-1735,-1680,254214
19,174,-190,-1704,-1672,254181
1,130,209,-1701,-1785,254244
7,67,54,-1765,-1742,254344
38,58,-249,-1750,-1704,254257
3,65,56,-1785,-1778,254228
-96,48,459,-1692,-1744,254201
-95,-16,205,-1769,-1756,254290
29,-79,-284,-1776,-1861,254157
26,-61,-148,-1788,-1728,254117
-35,-54,152,-1689,-1705,254283
-59,-67,-107,-1665,-1707,254348
26,-71,-396,-1732,-1780,254192
44,-9,-86,-1751,-1751,254167
-32,86,285,-1797,-1713,254367
-32,139,55,-1697,-1692,254362
85,94,-309,-1635,-1721,254202
96,9,-121,-1710,-1769,254182
14,-63,143,-1711,-1748,254175
39,-116,-117,-1709,-1774,254215
172,-126,-342,-1742,-1722,254178
200,-62,52,-1735,-1699,254246
97,13,395,-1737,-1756,254288
91,52,84,-1726,-1672,254202
196,72,-246,-1733,-1698,254260
168,115,-62,-1841,-1736,254213
28,125,25,-1766,-1751,254354
21,82,-233,-1742,-1758,254198
127,23,-307,-1682,-1731,254152
124,-3,45,-1679,-1763,254112
34,-3,305,-1718,-1741,254236
31,-39,120,-1696,-1759,254344
76,-63,-94,-1736,-1714,254272
-28,-38,70,-1693,-1645,254310
-166,23,183,-1735,-1707,254155
-163,48,-189,-1715,-1670,254152
-26,48,-375,-1719,-1726,254160
62,57,3,-1701,-1719,254216
35,60,262,-1755,-1704,254230
12,19,-59,-1738,-1714,254206
-44,-24,-188,-1758,-1774,254197
-177,-29,191,-1731,-1764,254172
-308,-44,238,-1732,-1724,254258
-243,-57,-216,-1715,-1775,254318
-50,-70,-322,-1763,-1715,254291
44,-73,125,-1681,-1682,254221
29,-81,261,-1643,-1804,254262
10,-104,-81,-1778,-1727,254226
-35,-74,-124,-1802,-1815,254194
-183,9,245,-1757,-1741,254331
-331,62,174,-1775,-1704,254341
-292,63,-253,-1743,-1688,254263
-143,12,-270,-1635,-1672,254219
-13,-62,176,-1645,-1699,254228
85,-126,349,-1670,-1726,254319
142,-155,27,-1696,-1765,254294
49,-99,-3,-1709,-1740,254099
-135,5,379,-1696,-1731,254256
-213,104,335,-1757,-1643,254318
-147,149,-275,-1823,-1699,254259
-59,147,-420,-1730,-1680,254274
-52,113,171,-1721,-1697,254273
-51,15,158,-1717,-1722,254248
-28,-72,-213,-1754,-1761,254296
-57,-66,-45,-1727,-1768,254139
-127,-22,310,-1698,-1722,254199
-160,61,197,-1725,-1707,254273
-124,83,-323,-1686,-1729,254184
-22,74,-378,-1749,-1764,254175
43,77,165,-1731,-1737,254224
105,46,102,-1722,-1819,254407
198,50,-408,-1685,-1753,254247
111,131,-141,-1774,-1749,254211
-48,233,239,-1732,-1714,254232
-110,294,-2,-1794,-1674,254211
-53,267,-378,-1778,-1699,254264
-41,216,-207,-1757,-1710,254164
-79,119,255,-1760,-1746,254237
-61,-8,98,-1802,-1796,254337
111,-65,-173,-1796,-1807,254200
168,-3,23,-1701,-1795,254175
25,105,308,-1659,-1764,254196
-109,201,99,-1734,-1763,254253
-106,223,-309,-1720,-1740,254252
-79,204,-177,-1814,-1653,254275
-63,143,221,-1753,-1701,254240
1,43,95,-1722,-1768,254441
132,-96,-294,-1725,-1782,254277
59,-85,66,-1685,-1809,254182
-69,-36,397,-1675,-1801,254257
-126,20,77,-1736,-1738,254335
-52,79,-258,-1714,-1658,254221
-46,64,-35,-1646,-1739,254132
-76,47,233,-1765,-1755,254292
47,-29,-79,-1764,-1757,254245
236,-53,-402,-1703,-1741,254073
186,29,-200,-1627,-1725,254159
-27,141,195,-1754,-1725,254262
-174,162,-108,-1812,-1683,254281
-129,117,-378,-1829,-1645,254286
-64,48,-60,-1757,-1644,254159
-47,-26,326,-1700,-1797,254205
-24,-116,-67,-1738,-1847,254341
88,-189,-289,-1748,-1747,254311
83,-91,123,-1753,-1714,254150
-22,-11,353,-1770,-1724,254246
-52,112,65,-1721,-1672,254334
-44,149,-317,-1781,-1725,254077
-88,114,96,-1748,-1669,254112
-128,67,320,-1753,-1742,254279
-66,-67,-121,-1790,-1784,254266
98,-95,-251,-1724,-1875,254176
116,-100,166,-1690,-1811,254238
-10,-54,354,-1779,-1736,254263
-9,-39,63,-1742,-1730,254227
37,-71,-187,-1745,-1770,254157
-40,-42,284,-1766,-1708,254217
-206,-18,389,-1744,-1613,254294
-181,-55,-144,-1762,-1682,254234
9,-41,-206,-1738,-1720,254175
117,-34,-57,-1636,-1746,254180
106,-5,232,-1694,-1711,254275
88,28,-106,-1718,-1754,254229
74,-79,-383,-1787,-1719,254157
-63,-29,229,-1766,-1611,254097
-170,-98,228,-1722,-1697,254150
-84,-142,-310,-1790,-1687,254229
129,-92,-187,-1739,-1777,254183
105,-109,-28,-1624,-1781,254343
62,-33,110,-1732,-1775,254225
113,-41,-168,-1791,-1694,254154
63,-40,-487,-1744,-1711,254247
-111,82,200,-1711,-1782,254174
-268,132,139,-1738,-1715,254290
-168,107,-279,-1748,-1773,254261
29,88,-103,-1678,-1711,254151
94,14,120,-1668,-1698,254207
115,-36,238,-1696,-1763,254345
170,-33,-44,-1716,-1785,254349
194,-61,-223,-1735,-1783,254106
50,83,427,-1683,-1702,254147
-123,187,224,-1717,-1642,254241
-108,203,-394,-1758,-1650,254201
37,243,-29,-1672,-1604,254208
35,184,88,-1659,-1614,254212
56,88,170,-1710,-1613,254307
129,0,-132,-1710,-1691,254214
150,-23,-164,-1682,-1728,254173
-36,57,525,-1724,-1689,254288
-140,137,220,-1736,-1762,254342
-43,101,-135,-1781,-1678,254220
53,88,92,-1786,-1701,254203
-27,-6,159,-1798,-1723,254270
-138,-74,128,-1723,-1676,254357
-46,-62,-370,-1761,-1675,254216
-69,12,-304,-1723,-1764,254196
-162,173,317,-1757,-1699,254293
-275,242,19,-1787,-1723,254250
-220,172,-359,-1767,-1644,254173
-129,97,-87,-1715,-1677,254203
-238,-57,282,-1706,-1677,254319
-280,-154,41,-1703,-1676,254347
-186,-151,-400,-1793,-1715,254317
-196,-55,-83,-1749,-1657,254180
-271,161,266,-1718,-1688,254282
-223,243,38,-1748,-1698,254277
-72,249,-279,-1666,-1710,254272
-7,199,-202,-1609,-1607,254289
-193,79,238,-1584,-1703,254181
-209,-35,25,-1713,-1703,254282
-16,-125,-405,-1732,-1746,254208
75,-123,-176,-1763,-1829,254215
58,50,309,-1717,-1710,254336
-81,138,9,-1719,-1687,254314
-7,137,-300,-1698,-1650,254323
67,97,-40,-1756,-1727,254315
9,-52,469,-1719,-1791,254283
-15,-39,-1,-1721,-1777,254246
59,-60,-436,-1726,-1746,254112
127,-22,-4,-1751,-1727,254172
85,136,237,-1782,-1703,254320
26,60,-88,-1768,-1700,254234
75,61,-233,-1770,-1712,254267
34,9,221,-1661,-1654,254133
-84,-169,387,-1662,-1722,254280
-27,-96,77,-1726,-1740,254285
58,-194,-383,-1778,-1776,254119
131,-4,30,-1772,-1710,254229
121,214,190,-1771,-1660,254289
4,157,-282,-1802,-1682,254343
40,305,-167,-1729,-1610,254202
-69,109,-17,-1703,-1637,254177
-176,8,271,-1719,-1698,254261
-109,53,42,-1772,-1740,254271
-44,-123,-315,-1738,-1784,254119
85,-16,139,-1716,-1709,254139
179,-1,310,-1718,-1703,254218
165,-69,-249,-1728,-1729,254193
310,66,-135,-1747,-1738,254164
266,-12,387,-1658,-1685,254215
114,-15,358,-1730,-1730,254393
83,21,-119,-1811,-1770,254188
62,-171,-355,-1780,-1688,254176
102,73,249,-1739,-1733,254288
-43,28,17,-1711,-1693,254305
-38,-36,-324,-1736,-1744,254311
93,33,99,-1777,-1782,254234
-19,-250,375,-1782,-1733,254237
-32,-120,471,-1751,-1791,254336
-71,-193,-3,-1825,-1805,254339
-95,-227,-172,-1775,-1739,254196
-76,-5,212,-1748,-1678,254218
-137,-145,-23,-1779,-1750,254224
-10,32,-221,-1751,-1707,254144
40,49,-275,-1716,-1738,254133
-90,9,214,-1732,-1684,254109
-102,131,154,-1733,-1732,254288
-145,-78,-337,-1716,-1709,254251
-84,-25,-267,-1752,-1699,254171
-66,34,92,-1801,-1704,254244
-117,-21,31,-1787,-1634,254309
-4,101,-477,-1779,-1699,254181
1,62,-189,-1779,-1789,254097
-97,154,221,-1748,-1745,254280
-183,254,183,-1825,-1635,254350
-159,161,-294,-1829,-1653,254293
-48,238,-119,-1745,-1665,254211
-132,143,284,-1740,-1740,254213
-132,77,-152,-1740,-1681,254313
6,160,-353,-1781,-1753,254269
11,36,-289,-1795,-1786,254158
-30,75,290,-1724,-1757,254233
-98,47,168,-1715,-1752,254347
-12,-20,-215,-1659,-1723,254317
-2,132,29,-1743,-1708,254274
-135,104,132,-1699,-1721,254204
-119,208,-33,-1820,-1649,254241
44,223,-443,-1695,-1714,254198
120,168,-196,-1721,-1761,254120
104,264,309,-1695,-1747,254243
-75,162,174,-1748,-1724,254295
-40,102,-76,-1758,-1705,254298
-43,79,161,-1746,-1765,254233
-221,-52,360,-1726,-1718,254194
-168,34,113,-1819,-1757,254204
30,4,-292,-1788,-1712,254114
141,5,10,-1666,-1681,254169
69,76,287,-1741,-1757,254311
-47,3,82,-1718,-1592,254253
17,98,-97,-1733,-1722,254240
-43,95,59,-1718,-1770,254202
-174,114,280,-1663,-1756,254279
-266,109,-114,-1775,-1744,254292
-187,78,-290,-1730,-1770,254190
-76,79,-104,-1714,-1699,254219
-44,57,318,-1795,-1709,254246
-54,-12,-24,-1740,-1666,254331
12,-80,-168,-1746,-1745,254181
-36,-80,251,-1731,-1742,254222
-257,-95,178,-1727,-1656,254199
-358,-2,-91,-1735,-1672,254309
-256,-3,-456,-1692,-1701,254144
-59,34,-24,-1738,-1708,254175
-68,-7,96,-1710,-1775,254317
-68,-90,-170,-1753,-1705,254321
48,-70,-187,-1748,-1711,254225
35,-179,72,-1666,-1753,254198
-80,-109,441,-1699,-1731,254247
-166,-109,-187,-1757,-1700,254216
-140,-119,-290,-1827,-1736,254221
-82,-47,56,-1762,-1721,254297
-115,-141,176,-1694,-1759,254276
-46,-91,-135,-1687,-1736,254305
85,-87,-267,-1793,-1730,254152
49,-83,358,-1765,-1742,254245
-37,37,319,-1706,-1674,254340
-64,-9,-159,-1649,-1773,254211
34,7,-281,-1709,-1758,254204
111,-3,164,-1804,-1710,254190
53,-87,109,-1707,-1768,254398
155,-79,-225,-1713,-1607,254371
196,-160,-115,-1772,-1750,254194
148,-69,241,-1673,-1772,254235
7,34,317,-1781,-1796,254252
-47,54,-189,-1755,-1748,254256
76,154,-250,-1746,-1667,254194
71,111,38,-1673,-1675,254187
116,101,159,-1690,-1704,254239
240,35,-342,-1679,-1773,254201
335,4,-136,-1680,-1755,254259
210,27,281,-1712,-1667,254253
43,44,260,-1768,-1720,254207
45,112,-100,-1749,-1691,254206
117,100,-172,-1735,-1663,254161
189,176,176,-1695,-1681,254253
134,73,-116,-1645,-1729,254294
200,2,-247,-1652,-1751,254101
188,-57,-219,-1649,-1755,254117
62,31,198,-1620,-1714,254180
-105,183,176,-1713,-1726,254260
-120,196,-263,-1711,-1707,254292
25,244,-54,-1689,-1690,254290
21,81,126,-1722,-1786,254279
37,19,263,-1716,-1764,254252
143,-82,-258,-1739,-1751,254073
209,-95,33,-1718,-1853,254003
95,1,266,-1680,-1744,254280
-79,63,96,-1762,-1724,254197
-68,161,-288,-1733,-1717,254128
5,190,-152,-1673,-1704,254204
-71,187,238,-1725,-1672,254277
-88,80,-172,-1750,-1740,254262
17,-2,-295,-1668,-1719,254275
162,-109,-123,-1700,-1710,254264
87,12,376,-1719,-1626,254225
30,21,3,-1675,-1754,254253
-16,82,-144,-1771,-1735,254210
-80,54,2,-1714,-1720,254250
-345,56,274,-1756,-1660,254321
-354,83,-61,-1813,-1644,254319
-286,-4,-340,-1676,-1736,254210
-165,7,-151,-1801,-1725,254173
-185,-19,260,-1724,-1730,254343
-203,-15,-33,-1728,-1752,254211
-207,45,-163,-1775,-1688,254232
-236,85,89,-1783,-1754,254257
-288,74,336,-1774,-1790,254398
-238,48,73,-1780,-1757,254402
-180,-65,-258,-1740,-1729,254189
-145,-38,129,-1753,-1721,254248
-146,-13,269,-1810,-1653,254229
-186,67,-5,-1813,-1718,254306
-83,123,-335,-1739,-1714,254202
-113,117,13,-1727,-1706,254161
-176,133,326,-1729,-1640,254275
-171,53,-8,-1759,-1701,254307
-40,-18,-266,-1722,-1746,254258
55,-74,102,-1684,-1713,254239
-77,-96,272,-1703,-1664,254354
-98,-36,-26,-1772,-1696,254334
-99,4,-250,-1787,-1723,254152
-48,97,174,-1713,-1774,254097
-94,146,297,-1770,-1702,254189
-55,147,-20,-1754,-1656,254208
80,73,-327,-1693,-1677,254216
83,15,-38,-1712,-1696,254297
-8,-65,88,-1765,-1719,254273
34,-76,-181,-1732,-1716,254282
61,-74,-287,-1755,-1732,254228
-44,2,181,-1683,-1762,254200
-137,88,286,-1716,-1734,254382
-103,59,-67,-1756,-1737,254315
111,-21,-319,-1668,-1701,254245
127,-41,81,-1639,-1675,254233
127,-80,75,-1732,-1713,254197
122,17,-275,-1744,-1706,254133
203,100,-383,-1757,-1714,254142
60,217,54,-1799,-1635,254245
-88,260,264,-1764,-1593,254286
-86,180,-193,-1739,-1655,254145
83,56,-185,-1722,-1720,254119
163,-68,214,-1708,-1731,254182
99,-121,158,-1772,-1735,254195
153,-129,-226,-1808,-1741,254298
195,-49,-119,-1755,-1721,254235
145,112,339,-1711,-1698,254290
-36,225,221,-1712,-1751,254274
-72,223,-192,-1770,-1803,254190
2,118,-167,-1786,-1773,254163
-13,-18,183,-1743,-1772,254251
-115,-70,139,-1744,-1822,254271
-59,-85,-243,-1781,-1745,254198
94,-51,-163,-1740,-1760,254154
135,52,270,-1709,-1711,254218
52,122,254,-1811,-1739,254273
50,128,-167,-1789,-1698,254319
60,62,-166,-1754,-1734,254159
-41,-22,276,-1683,-1709,254117
-219,-50,49,-1732,-1769,254231
-165,-53,-326,-1719,-1738,254206
-3,30,-245,-1729,-1776,254286
12,158,192,-1716,-1716,254196
-52,209,34,-1791,-1658,254296
-28,139,-259,-1771,-1665,254282
54,-3,89,-1708,-1735,254240
-21,-135,436,-1727,-1788,254336
-115,-192,198,-1677,-1795,254289
-96,-211,-266,-1710,-1743,254138
-48,-125,-227,-1771,-1692,254306
-83,-7,75,-1749,-1715,254238
-87,93,-14,-1742,-1729,254254
8,79,-294,-1726,-1740,254261
-3,6,-69,-1658,-1746,254249
-148,-78,337,-1715,-1716,254282
-251,-161,91,-1767,-1746,254243
-101,-165,-378,-1668,-1737,254244
-34,-117,-203,-1737,-1700,254219
-88,16,201,-1728,-1624,254287
-80,8,121,-1711,-1645,254254
55,-52,-85,-1666,-1690,254258
88,-80,187,-1724,-1761,254255
-85,-109,385,-1687,-1746,254348
-161,-65,87,-1720,-1765,254389
-146,-26,-294,-1715,-1735,254219
-75,58,-152,-1732,-1741,254139
-92,129,189,-1758,-1720,254267
57,89,-47,-1738,-1702,254185
195,15,-245,-1713,-1720,254167
149,-105,59,-1625,-1746,254198
-39,-133,385,-1698,-1730,254260
-173,-125,54,-1762,-1756,254262
-130,-32,-254,-1751,-1686,254153
-116,135,-49,-1703,-1631,254240
-96,243,111,-1774,-1711,254180
-46,281,-271,-1761,-1747,254234
154,235,-353,-1720,-1714,254190
188,186,105,-1713,-1781,254169
50,130,325,-1685,-1763,254289
-69,67,-117,-1710,-1721,254196
-79,51,-188,-1756,-1768,254052
-121,85,153,-1772,-1712,254227
-178,149,119,-1834,-1787,254243
-16,109,-229,-1774,-1732,254197
158,97,-133,-1725,-1758,254134
132,48,202,-1758,-1686,254131
-38,57,320,-1715,-1707,254237
-105,73,-8,-1697,-1723,254196
-109,89,-139,-1769,-1743,254133
-146,139,114,-1704,-1637,254217
-203,145,183,-1693,-1696,254280
-98,91,-221,-1716,-1642,254244
73,22,-265,-1714,-1707,254102
75,1,258,-1732,-1692,254278
-34,-7,311,-1717,-1654,254316
-53,-16,-163,-1733,-1727,254298
44,-24,-209,-1747,-1697,254222
-8,22,176,-1692,-1729,254266
-75,72,55,-1731,-1731,254317
-20,36,-465,-1818,-1739,254337
132,-15,-315,-1712,-1701,254114
117,-49,188,-1713,-1782,254228
37,-81,206,-1769,-1741,254395
84,-121,-183,-1759,-1728,254291
127,-157,-162,-1665,-1732,254159
66,-169,214,-1698,-1673,254193
-92,-127,80,-1708,-1722,254284
55,-122,-310,-1699,-1740,254154
161,-77,-316,-1686,-1709,254139
109,32,150,-1678,-1697,254270
73,126,187,-1720,-1684,254262
166,159,-232,-1794,-1716,254366
179,174,-96,-1758,-1738,254254
-2,173,283,-1695,-1692,254275
-152,136,119,-1716,-1728,254256
-46,53,-395,-1776,-1759,254189
69,21,-174,-1767,-1786,254119
34,31,301,-1725,-1737,254262
-48,61,223,-1761,-1694,254331
-3,65,-47,-1769,-1697,254261
-46,108,74,-1755,-1721,254267
-212,172,344,-1671,-1691,254304
-325,192,35,-1721,-1733,254313
-208,162,-322,-1785,-1750,254262
-77,120,-121,-1739,-1646,254229
-61,110,230,-1757,-1708,254237
-79,97,113,-1789,-1717,254225
-22,59,-181,-1660,-1753,254236
-53,34,77,-1713,-1652,254207
-213,5,268,-1718,-1721,254221
-308,3,-42,-1791,-1813,254205
-205,10,-424,-1831,-1755,254221
-28,51,-185,-1787,-1720,254133
17,72,61,-1765,-1725,254258
29,79,-194,-1764,-1716,254395
81,40,-317,-1677,-1706,254152
59,10,65,-1673,-1750,254153
-98,11,310,-1760,-1727,254272
-237,-40,-73,-1719,-1706,254299
-194,-93,-283,-1665,-1684,254100
-85,-114,70,-1733,-1757,254137
31,-95,329,-1749,-1768,254357
124,-62,28,-1799,-1776,254326
175,-60,-150,-1696,-1701,254230
53,-32,234,-1680,-1776,254266
-135,40,410,-1770,-1703,254299
-204,122,-67,-1778,-1714,254242
-91,190,-378,-1748,-1721,254114
48,210,27,-1724,-1669,254124
103,110,242,-1682,-1718,254263
129,-45,-69,-1728,-1738,254334
163,-135,-191,-1767,-1753,254166
73,-118,246,-1688,-1735,254152
-108,3,337,-1683,-1735,254375
-191,108,-169,-1824,-1792,254222
-128,157,-303,-1788,-1722,254066
-61,162,95,-1739,-1757,254083
-37,119,181,-1737,-1731,254290
82,14,-230,-1698,-1730,254220
188,-93,-293,-1692,-1770,254152
-3,-82,164,-1705,-1769,254163
-151,-18,279,-1766,-1783,254312
-188,90,-87,-1738,-1765,254204
-109,132,-275,-1728,-1799,254189
-78,93,73,-1661,-1808,254278
-50,-56,153,-1753,-1726,254250
83,-214,-222,-1738,-1760,254230
222,-264,-253,-1715,-1805,254271
132,-173,114,-1658,-1686,254269
-108,-10,159,-1747,-1659,254324
-212,111,-239,-1823,-1700,254229
-172,169,-235,-1834,-1658,254161
-137,144,144,-1750,-1683,254259
-116,39,101,-1682,-1713,254303
22,-149,-282,-1753,-1740,254225
172,-304,-177,-1693,-1740,254265
148,-283,314,-1691,-1746,254206
7,-126,264,-1733,-1730,254310
-65,60,-163,-1785,-1694,254210
-58,186,-86,-1721,-1702,254210
-162,192,238,-1681,-1736,254179
-276,143,49,-1713,-1693,254242
-169,32,-313,-1708,-1719,254297
6,-35,-88,-1726,-1714,254196
42,-26,265,-1687,-1698,254246
-80,29,88,-1759,-1674,254304
4,66,-134,-1748,-1720,254151
73,116,102,-1674,-1694,254166
-1,141,349,-1678,-1710,254256
-66,101,75,-1749,-1672,254234
9,-7,-256,-1739,-1741,254102
127,-40,-100,-1696,-1765,254214
140,15,188,-1619,-1757,254186
126,117,-44,-1703,-1645,254300
169,158,-402,-1675,-1746,254236
138,167,-150,-1748,-1689,254217
17,105,312,-1758,-1687,254223
-58,-5,117,-1667,-1690,254102
42,-126,-266,-1723,-1842,254178
137,-168,50,-1712,-1779,254254
126,-141,332,-1677,-1806,254256
124,-63,-22,-1698,-1779,254265
155,44,-288,-1742,-1788,254195
99,133,36,-1711,-1729,254179
-53,197,294,-1657,-1651,254357
-110,126,7,-1760,-1703,254213
-4,18,-295,-1733,-1710,254169
36,-45,-43,-1735,-1739,254122
-21,-70,174,-1714,-1720,254366
-55,-28,-120,-1737,-1791,254320
15,-8,-358,-1714,-1702,254226
-23,10,17,-1718,-1719,254195
-101,39,351,-1764,-1733,254287
-138,30,-25,-1707,-1649,254227
-103,3,-271,-1749,-1711,254195
-109,8,73,-1741,-1722,254210
-195,43,168,-1703,-1721,254386
-155,93,-167,-1692,-1742,254267
-52,169,-263,-1760,-1769,254162
-13,217,83,-1770,-1778,254220
-138,183,249,-1706,-1710,254353
-138,114,-11,-1777,-1772,254295
-71,17,-132,-1709,-1715,254188
-69,-4,172,-1717,-1786,254261
-96,54,173,-1741,-1748,254171
-34,99,-186,-1738,-1776,254131
86,172,-305,-1667,-1748,254222
54,191,38,-1672,-1735,254336
-86,192,240,-1729,-1716,254359
-143,141,-138,-1754,-1718,254223
-113,61,-234,-1765,-1740,254057
-131,58,220,-1786,-1764,254156
-175,60,262,-1757,-1744,254223
-57,26,-189,-1769,-1778,254124
130,2,-218,-1726,-1688,254217
9,20,183,-1713,-1670,254262
-108,-14,206,-1758,-1714,254359
-130,-42,-112,-1727,-1734,254309
-97,-46,-85,-1716,-1766,254134
-206,-32,201,-1756,-1699,254198
-261,5,82,-1791,-1651,254303
-163,-17,-294,-1758,-1683,254275
-56,-40,-268,-1672,-1697,254237
-64,-35,168,-1710,-1727,254222
-87,-71,211,-1799,-1662,254203
-16,-133,-134,-1830,-1636,254212
-11,-187,-149,-1758,-1689,254138
-105,-194,284,-1728,-1724,254246
-152,-183,227,-1710,-1790,254368
-48,-139,-294,-1748,-1787,254360
2,-34,-320,-1733,-1803,254180
-41,59,106,-1792,-1829,254176
-51,105,49,-1704,-1767,254285
61,83,-343,-1736,-1766,254207
117,57,-119,-1684,-1754,254189
18,29,348,-1748,-1786,254323
-50,-29,128,-1756,-1738,254412
33,-62,-295,-1676,-1748,254338
120,-63,-106,-1701,-1703,254303
136,7,294,-1669,-1677,254371
146,50,136,-1749,-1698,254290
161,76,-180,-1757,-1727,254185
129,99,38,-1733,-1730,254252
11,105,418,-1731,-1691,254267
-7,109,229,-1765,-1723,254286
88,76,-227,-1750,-1747,254108
132,72,-122,-1738,-1697,254136
90,75,212,-1726,-1750,254299
82,83,28,-1734,-1777,254226
187,82,-302,-1782,-1696,254230
229,85,-24,-1778,-1769,254139
111,73,353,-1734,-1779,254282
-45,23,85,-1749,-1728,254203
-26,9,-322,-1767,-1740,254192
41,26,-238,-1757,-1695,254141
39,96,-58,-1733,-1707,254242
41,164,-299,-1780,-1735,254306
115,160,-505,-1701,-1683,254154
106,139,-98,-1715,-1713,254147
-16,111,285,-1767,-1808,254270
-77,57,47,-1725,-1693,254347
-14,-12,-271,-1718,-1697,254146
3,-23,-36,-1732,-1681,254122
-72,-9,196,-1748,-1720,254159
-38,16,-53,-1713,-1706,254316
140,24,-258,-1740,-1685,254232
148,64,87,-1721,-1658,254218
-58,102,405,-1650,-1755,254257
-218,104,89,-1680,-1692,254269
-188,56,-188,-1729,-1757,254237
-154,29,121,-1769,-1739,254256
-197,7,333,-1678,-1736,254297
-170,-56,-7,-1712,-1716,254207
-41,-120,-132,-1704,-1751,254203
19,-127,365,-1705,-1681,254183
-76,-78,573,-1702,-1675,254483
-156,-27,104,-1684,-1659,254288
-135,23,-114,-1738,-1719,254155
-181,99,199,-1729,-1685,254253
-268,154,179,-1750,-1743,254245
-204,131,-335,-1731,-1711,254385
-16,68,-410,-1772,-1780,254220
25,-22,146,-1689,-1700,254244
-97,-105,316,-1649,-1673,254378
-181,-162,-73,-1759,-1721,254206
-180,-155,-186,-1769,-1756,254198
-210,-61,84,-1756,-1753,254144
-212,41,54,-1716,-1739,254235
-69,76,-424,-1690,-1701,254260
108,66,-469,-1679,-1752,254242
118,52,25,-1666,-1753,254145
-12,39,110,-1743,-1765,254373
-90,13,-279,-1791,-1796,254338
-97,-14,-285,-1741,-1829,254130
-218,19,184,-1729,-1791,254237
-246,39,166,-1682,-1688,254257
-136,26,-337,-1737,-1615,254184
48,-13,-309,-1730,-1710,254240
112,-11,244,-1764,-1757,254235
111,9,340,-1781,-1721,254332
131,34,-53,-1843,-1727,254234
85,99,-69,-1707,-1743,254196
-89,182,269,-1765,-1728,254216
-217,235,146,-1782,-1765,254251
-110,202,-344,-1698,-1757,254192
55,141,-303,-1676,-1723,254196
47,90,150,-1694,-1692,254268
-13,22,148,-1718,-1775,254322
35,-22,-148,-1785,-1766,254295
71,-21,-35,-1712,-1740,254240
-10,45,341,-1683,-1714,254281
-114,92,152,-1745,-1745,254281
-28,105,-354,-1762,-1763,254241
106,104,-296,-1747,-1710,254215
127,108,116,-1784,-1691,254180
108,114,28,-1781,-1678,254345
137,98,-328,-1840,-1669,254234
78,114,-145,-1751,-1617,254245
-92,140,235,-1734,-1716,254236
-171,95,46,-1797,-1700,254327
24,13,-330,-1780,-1736,254279
227,-83,-136,-1756,-1730,254121
225,-148,252,-1611,-1739,254209
150,-157,107,-1717,-1738,254258
161,-129,-186,-1802,-1660,254259
126,-6,80,-1814,-1643,254267
-6,131,406,-1753,-1696,254288
-89,141,94,-1802,-1697,254227
-4,27,-279,-1774,-1768,254188
0,-96,33,-1790,-1786,254227
-112,-191,329,-1768,-1731,254289
-116,-227,62,-1771,-1772,254326
5,-224,-176,-1824,-1760,254280
40,-135,174,-1775,-1712,254254
-67,-51,465,-1750,-1729,254302
-93,-24,76,-1707,-1716,254225
-1,-53,-306,-1684,-1739,254188
-50,-74,-64,-1745,-1785,254101
-224,-66,175,-1796,-1722,254334
-249,-85,-144,-1830,-1700,254275
-91,-68,-346,-1731,-1789,254198
-10,13,59,-1636,-1783,254214
-57,75,350,-1764,-1720,254200
-94,53,-7,-1757,-1821,254255
-72,1,-260,-1704,-1769,254274
-157,-55,51,-1639,-1768,254289
-209,-36,198,-1712,-1776,254300
-140,1,-208,-1648,-1674,254255
5,57,-393,-1713,-1668,254149
20,163,59,-1798,-1724,254180
-51,252,315,-1795,-1709,254263
-2,283,-76,-1797,-1774,254201
89,261,-290,-1705,-1706,254228
47,196,87,-1739,-1742,254286
-61,103,260,-1750,-1691,254269
-36,-23,-165,-1762,-1744,254169
102,-68,-313,-1790,-1736,254222
100,7,103,-1715,-1688,254355
10,122,293,-1686,-1755,254275
7,202,-40,-1775,-1695,254224
52,217,-199,-1710,-1712,254097
-5,207,102,-1730,-1781,254218
-71,190,141,-1736,-1666,254231
-3,124,-275,-1732,-1801,254311
103,56,-386,-1676,-1806,254297
60,25,53,-1674,-1675,254264
-3,20,244,-1700,-1716,254272
65,18,-69,-1740,-1771,254204
129,32,-125,-1643,-1727,254129
-2,55,198,-1669,-1739,254180
-158,47,217,-1748,-1728,254278
-90,-3,-218,-1729,-1723,254246
69,-38,-297,-1743,-1819,254305
64,-12,120,-1655,-1640,254274
-34,18,184,-1692,-1673,254302
5,-16,-170,-1816,-1659,254192
42,-31,-106,-1664,-1714,254125
-113,8,293,-1637,-1767,254277
-276,14,161,-1729,-1685,254316
-196,-29,-267,-1798,-1716,254090
-21,-86,-118,-1716,-1694,254116
39,-86,320,-1731,-1625,254306
30,-44,200,-1786,-1696,254341
86,-17,-207,-1798,-1752,254341
82,24,-81,-1676,-1694,254282
-89,64,260,-1749,-1737,254329
-228,71,33,-1755,-1722,254363
-145,63,-384,-1739,-1675,254168
-22,73,-185,-1721,-1710,254196
-14,81,225,-1719,-1748,254274
-2,48,159,-1728,-1699,254257
105,-37,-171,-1712,-1694,254242
125,-96,94,-1704,-1713,254200
-57,-53,472,-1739,-1754,254245
-226,-35,66,-1814,-1831,254277
-205,1,-213,-1771,-1786,254229
-84,45,-69,-1732,-1756,254171
-69,73,115,-1721,-1672,254296
-20,108,44,-1709,-1669,254235
83,43,-342,-1682,-1708,254098
88,-23,-133,-1690,-1743,254063
-24,-28,434,-1660,-1746,254184
-79,-73,81,-1687,-1753,254318
-17,-107,-431,-1711,-1806,254282
-25,-58,62,-1734,-1753,254162
-52,-33,283,-1758,-1785,254346
45,-41,-197,-1711,-1709,254342
194,-11,-407,-1690,-1758,254220
162,26,-137,-1626,-1815,254148
0,73,80,-1711,-1724,254298
-87,77,-60,-1782,-1682,254249
-9,13,-277,-1841,-1669,254191
16,-23,-148,-1697,-1751,254247
-100,15,272,-1704,-1697,254278
-113,-15,38,-1731,-1715,254321
45,-45,-391,-1758,-1705,254196
119,0,55,-1734,-1753,254290
25,60,447,-1746,-1759,254287
-26,108,-109,-1753,-1762,254240
-15,144,-301,-1710,-1737,254173
-105,206,203,-1807,-1753,254086
-237,172,96,-1787,-1740,254261
-140,152,-195,-1755,-1708,254259
85,115,-143,-1700,-1714,254177
35,79,15,-1704,-1787,254246
-105,81,217,-1756,-1766,254221
-51,32,193,-1760,-1778,254277
15,-69,-166,-1719,-1782,254303
-59,-68,80,-1762,-1753,254149
-140,19,499,-1781,-1737,254278
-146,4,-133,-1719,-1737,254278
-6,18,-438,-1759,-1750,254156
169,77,195,-1688,-1754,254233
100,81,139,-1752,-1784,254377
-6,50,-352,-1731,-1724,254298
-14,70,-41,-1699,-1782,254213
-133,17,245,-1709,-1790,254268
-269,-8,181,-1828,-1758,254294
-103,9,54,-1801,-1671,254154
63,-47,-200,-1673,-1689,254232
-6,-56,12,-1660,-1755,254373
-45,-50,300,-1672,-1773,254314
-47,-115,-193,-1716,-1700,254245
-99,-91,-314,-1717,-1713,254184
-170,29,296,-1730,-1703,254186
-317,105,153,-1736,-1714,254416
-385,160,-407,-1810,-1682,254325
-216,137,-205,-1756,-1648,254121
-53,81,128,-1782,-1712,254277
-85,-2,49,-1684,-1721,254254
-45,-50,-56,-1756,-1697,254272
35,-79,-85,-1730,-1723,254277
-55,-83,214,-1707,-1770,254184
-192,23,391,-1722,-1813,254254
-289,88,-221,-1755,-1804,254234
-340,151,-326,-1675,-1647,254228
-235,196,230,-1662,-1654,254354
-57,113,61,-1780,-1708,254456
89,57,-218,-1690,-1747,254199
134,34,108,-1678,-1832,254142
10,-36,182,-1692,-1716,254364
-149,-36,188,-1755,-1734,254359
-147,30,234,-1807,-1738,254181
-27,92,-164,-1734,-1758,254173
119,127,-193,-1709,-1750,254113
251,117,236,-1709,-1708,254220
320,84,-100,-1736,-1776,254238
268,29,-377,-1740,-1738,254258
158,61,212,-1743,-1632,254235
37,101,224,-1723,-1754,254320
2,61,-313,-1802,-1701,254137
58,79,-126,-1778,-1625,254190
116,75,32,-1766,-1691,254272
159,-25,-268,-1769,-1768,254276
257,-62,-199,-1726,-1783,254196
274,-31,-21,-1765,-1811,254238
232,10,-37,-1751,-1759,254301
207,112,2,-1753,-1718,254249
158,203,-92,-1745,-1687,254159
67,197,-283,-1715,-1737,254187
36,132,-41,-1680,-1735,254233
92,66,77,-1688,-1757,254207
141,-27,-284,-1738,-1769,254080
147,-39,-69,-1804,-1692,254204
149,21,479,-1740,-1653,254209
161,9,137,-1725,-1727,254292
146,3,-188,-1733,-1717,254157
25,50,257,-1752,-1687,254200
-53,-34,271,-1728,-1675,254162
8,-174,-130,-1750,-1721,254268
109,-194,-145,-1699,-1788,254217
25,-173,-67,-1670,-1809,254250
-129,-53,180,-1811,-1717,254268
-194,56,60,-1740,-1716,254295
-190,96,-312,-1702,-1742,254199
-178,169,17,-1750,-1711,254271
-145,125,134,-1725,-1702,254223
-41,21,-162,-1732,-1765,254212
58,-76,-210,-1626,-1727,254348
91,-188,-43,-1656,-1775,254268
-12,-142,476,-1661,-1729,254222
-172,-47,163,-1798,-1729,254250
-278,26,-450,-1804,-1714,254224
-288,152,217,-1679,-1659,254107
-287,139,278,-1700,-1715,254271
-150,71,-303,-1801,-1716,254194
53,43,-178,-1747,-1703,254115
111,-81,146,-1727,-1788,254182
55,-126,388,-1646,-1684,254240
3,-156,29,-1713,-1768,254266
-114,-139,-172,-1683,-1716,254115
-287,-17,285,-1748,-1714,254049
-345,74,238,-1748,-1705,254166
-231,100,-201,-1739,-1731,254268
-60,108,-350,-1799,-1707,254179
27,80,-104,-1718,-1716,254222
-8,50,285,-1714,-1655,254287
-54,27,-15,-1691,-1697,254365
-103,44,-304,-1720,-1738,254260
-217,55,278,-1738,-1736,254236
-325,67,356,-1725,-1609,254416
-244,44,-261,-1734,-1748,254346
-73,26,-285,-1753,-1735,254170
-3,37,109,-1660,-1737,254231
65,25,158,-1659,-1698,254287
93,56,-267,-1746,-1659,254265
85,60,-283,-1718,-1685,254216
-156,164,197,-1741,-1710,254359
-391,223,115,-1778,-1737,254316
-345,124,-333,-1806,-1777,254234
-160,84,-230,-1765,-1722,254191
-124,-2,174,-1673,-1765,254263
-100,-69,123,-1672,-1761,254303
75,-15,-134,-1741,-1731,254283
191,-8,-81,-1754,-1694,254105
87,104,363,-1747,-1728,254211
-94,185,197,-1788,-1723,254304
-103,148,-282,-1745,-1738,254200
-10,136,-99,-1666,-1757,254074
-35,47,125,-1739,-1754,254261
-9,16,-59,-1718,-1808,254279
110,-32,-187,-1707,-1819,254181
149,-42,73,-1741,-1739,254132
81,78,273,-1769,-1730,254295
5,108,172,-1728,-1696,254264
95,116,-87,-1731,-1709,254250
162,116,-126,-1777,-1665,254172
29,0,183,-1805,-1684,254248
-13,-36,77,-1817,-1723,254302
93,-138,-430,-1765,-1729,254165
191,-120,-94,-1689,-1760,254202
134,41,332,-1752,-1771,254407
-60,78,-115,-1785,-1704,254312
-63,159,-326,-1765,-1712,254222
20,59,-9,-1729,-1720,254249
-4,-36,300,-1700,-1726,254293
20,-50,-35,-1786,-1710,254311
127,-253,-388,-1779,-1673,254143
257,-173,132,-1732,-1717,254210
186,-119,291,-1730,-1744,254440
76,-110,-106,-1744,-1756,254423
139,93,-164,-1766,-1754,254227
26,47,-40,-1706,-1743,254222
-68,75,144,-1729,-1696,254311
19,61,49,-1758,-1747,254295
139,-115,-230,-1674,-1751,254197
184,-53,28,-1666,-1789,254266
78,-78,326,-1706,-1750,254394
-9,-123,90,-1766,-1755,254340
69,-76,-228,-1769,-1694,254211
77,-147,11,-1786,-1752,254265
28,-45,316,-1748,-1775,254304
-37,-25,-169,-1699,-1741,254245
18,-12,-519,-1714,-1719,254160
63,122,33,-1679,-1816,254153
-41,139,167,-1764,-1732,254333
-23,135,-245,-1684,-1654,254219
-13,95,-196,-1721,-1752,254138
-55,-70,101,-1749,-1762,254189
-174,-83,219,-1711,-1726,254339
-185,-134,-16,-1735,-1709,254242
-24,-73,-186,-1720,-1701,254229
15,97,18,-1634,-1589,254264
-55,222,249,-1725,-1666,254288
-39,307,9,-1789,-1738,254271
40,259,-200,-1722,-1710,254269
-61,211,220,-1717,-1759,254176
-320,186,403,-1745,-1741,254280
-457,100,-129,-1825,-1799,254309
-273,108,-82,-1774,-1697,254080
-170,159,350,-1757,-1710,254099
-213,192,238,-1712,-1690,254198
-115,234,-17,-1704,-1762,254221
-37,148,10,-1763,-1793,254222
-163,132,322,-1704,-1756,254156
-339,127,108,-1693,-1798,254269
-334,69,-159,-1787,-1725,254161
-226,110,-272,-1748,-1683,254172
-159,128,-105,-1736,-1667,254282
-197,159,-32,-1729,-1671,254266
-136,130,-367,-1824,-1724,254339
-36,67,-388,-1715,-1759,254257
-97,7,-8,-1721,-1729,254336
-184,-34,202,-1766,-1750,254268
-236,-90,-310,-1790,-1723,254296
-136,-85,-147,-1748,-1768,254131
-71,-65,175,-1739,-1737,254259
-79,-44,22,-1695,-1747,254327
-9,-5,-475,-1665,-1758,254266
62,-63,-308,-1744,-1723,254226
91,-38,250,-1731,-1795,254328
-3,-99,24,-1725,-1680,254265
-26,-117,-200,-1771,-1657,254188
-38,-154,-43,-1767,-1721,254160
-53,-150,377,-1719,-1692,254279
-28,-162,53,-1734,-1725,254354
98,-191,-203,-1704,-1773,254232
162,-172,7,-1764,-1752,254192
164,-203,295,-1708,-1687,254323
91,-146,319,-1684,-1685,254343
62,-89,-160,-1731,-1695,254197
-20,75,27,-1745,-1729,254025
-122,168,178,-1672,-1705,254313
-70,223,95,-1756,-1677,254341
60,150,-408,-1740,-1691,254260
223,52,-60,-1699,-1715,254185
269,-51,393,-1734,-1709,254239
264,-151,179,-1733,-1780,254395
193,-134,-125,-1756,-1762,254266
133,-89,72,-1724,-1758,254295
46,100,410,-1685,-1711,254377
61,134,-131,-1707,-1633,254308
178,253,-269,-1710,-1678,254126
227,198,-78,-1802,-1648,254228
230,171,349,-1774,-1692,254290
226,47,71,-1807,-1765,254324
239,-29,-42,-1766,-1785,254275
140,-26,84,-1706,-1769,254180
-35,-27,289,-1753,-1799,254231
-102,28,-56,-1729,-1792,254239
18,4,-358,-1741,-1718,254201
141,80,-35,-1700,-1714,254226
151,98,172,-1723,-1707,254259
95,121,-202,-1735,-1699,254290
127,69,-412,-1791,-1751,254204
127,69,-23,-1716,-1739,254254
-61,90,104,-1773,-1741,254209
-142,123,-277,-1795,-1709,254178
-118,90,-390,-1764,-1757,254176
33,23,-31,-1769,-1677,254223
51,-8,150,-1796,-1729,254294
93,-47,-74,-1762,-1714,254236
100,-11,-124,-1736,-1711,254156
32,14,273,-1741,-1686,254219
-135,98,336,-1788,-1770,254248
-170,91,-98,-1746,-1771,254267
-31,106,-396,-1752,-1727,254267
77,86,-44,-1689,-1763,254108
58,69,130,-1719,-1764,254199
-74,72,-309,-1710,-1726,254256
-122,3,-270,-1804,-1700,254232
-168,69,258,-1807,-1730,254197
-230,104,331,-1747,-1753,254285
-248,154,-136,-1742,-1736,254260
-164,90,-242,-1748,-1713,254180
-107,30,181,-1751,-1706,254232
-136,-63,129,-1728,-1713,254307
-156,-34,-236,-1776,-1728,254231
-221,27,-286,-1641,-1697,254231
-323,159,203,-1668,-1769,254192
-477,234,197,-1731,-1719,254289
-496,228,-184,-1854,-1738,254313
-334,195,-169,-1859,-1728,254291
-201,88,238,-1720,-1768,254209
-99,-51,209,-1740,-1748,254262
-53,-141,-142,-1687,-1723,254220
-113,-165,-127,-1703,-1750,254204
-220,-40,330,-1743,-1757,254198
-357,103,195,-1809,-1703,254350
-365,196,-258,-1729,-1683,254322
-276,204,-186,-1732,-1683,254085
-220,92,210,-1760,-1675,254139
-138,-16,219,-1769,-1693,254214
5,-116,-160,-1765,-1774,254167
29,-121,42,-1750,-1763,254188
-66,-109,423,-1693,-1751,254321
-172,-85,330,-1797,-1728,254339
-136,-78,-58,-1778,-1665,254243
-2,-100,-28,-1710,-1736,254203
22,-75,287,-1734,-1735,254214
42,-102,75,-1654,-1813,254163
56,-100,-384,-1753,-1783,254174
114,-49,-249,-1782,-1738,254191
37,50,150,-1748,-1729,254272
17,105,-27,-1721,-1700,254321
43,56,-293,-1699,-1701,254266
58,-71,-45,-1697,-1731,254190
53,-196,242,-1800,-1801,254240
20,-271,-57,-1787,-1752,254292
184,-227,-356,-1835,-1711,254168
237,-86,-158,-1656,-1654,254154
233,13,132,-1697,-1717,254302
200,96,-29,-1820,-1670,254240
257,108,-245,-1779,-1685,254209
236,123,-25,-1766,-1819,254269
126,120,224,-1686,-1741,254294
87,44,-5,-1713,-1715,254234
162,-33,-324,-1751,-1719,254185
277,-67,-73,-1722,-1708,254163
144,-9,235,-1748,-1731,254259
155,-4,5,-1736,-1733,254241
152,13,-127,-1810,-1728,254178
166,48,258,-1791,-1711,254220
59,119,402,-1799,-1725,254258
75,184,-70,-1806,-1732,254255
155,229,-375,-1799,-1713,254241
188,247,-74,-1697,-1755,254207
135,178,164,-1640,-1725,254308
78,88,-84,-1689,-1745,254143
87,13,-151,-1693,-1772,254109
-10,5,246,-1721,-1746,254219
-121,39,349,-1761,-1740,254274
-133,47,-120,-1750,-1647,254265
36,44,-401,-1773,-1704,254199
116,49,-125,-1734,-1702,254182
109,40,81,-1744,-1661,254217
63,-2,-278,-1732,-1753,254367
20,-17,-351,-1744,-1727,254159
-92,11,86,-1731,-1750,254086
-254,72,256,-1741,-1779,254225
-248,114,-149,-1771,-1643,254227
-122,121,-313,-1815,-1683,254205
13,81,109,-1742,-1730,254257
60,19,244,-1681,-1648,254306
83,-64,-55,-1757,-1770,254260
83,-84,-59,-1708,-1761,254180
-33,-5,413,-1664,-1792,254147
-169,86,481,-1680,-1714,254196
-205,151,-25,-1722,-1662,254285
-156,185,-181,-1738,-1707,254239
-196,153,92,-1748,-1742,254286
-236,85,246,-1736,-1694,254219
-174,-21,-60,-1763,-1751,254126
-86,-78,-53,-1754,-1837,254195
-133,-92,318,-1768,-1783,254237
-227,-39,366,-1736,-1730,254253
-241,-7,-135,-1743,-1728,254197
-190,41,-258,-1672,-1716,254260
-223,101,56,-1720,-1701,254276
-252,75,-38,-1719,-1727,254292
-175,31,-408,-1759,-1801,254206
-104,-11,-279,-1776,-1781,254308
-209,36,124,-1688,-1750,254271
-306,98,65,-1649,-1711,254276
-250,108,-295,-1737,-1679,254308
-123,105,-211,-1798,-1735,254178
-102,74,101,-1744,-1754,254195
-64,5,61,-1672,-1749,254133
90,-69,-216,-1777,-1708,254127
171,-103,-134,-1692,-1719,254190
113,-67,264,-1668,-1694,254157
-86,10,210,-1843,-1701,254371
-112,81,-151,-1873,-1713,254257
-94,152,-107,-1714,-1716,254181
-94,194,242,-1731,-1716,254308
-114,156,28,-1662,-1739,254391
24,62,-301,-1766,-1738,254163
186,-33,-87,-1697,-1745,254209
257,-80,323,-1703,-1720,254312
207,-103,137,-1677,-1749,254262
126,-124,-240,-1728,-1755,254204
28,-92,5,-1767,-1679,254242
-135,-16,249,-1768,-1722,254321
-210,76,-49,-1803,-1727,254322
-94,125,-457,-1742,-1705,254277
88,114,-172,-1646,-1685,254298
135,49,195,-1613,-1738,254326
113,-51,34,-1706,-1705,254294
94,-139,-170,-1770,-1762,254270
-7,-178,90,-1729,-1789,254303
-183,-174,336,-1808,-1778,254260
-235,-136,16,-1724,-1745,254253
-95,-62,-292,-1747,-1738,254135
42,42,-87,-1674,-1699,254154
110,133,183,-1670,-1711,254319
169,140,-80,-1694,-1655,254316
249,75,-359,-1693,-1749,254253
200,35,2,-1802,-1728,254268
27,50,288,-1728,-1812,254237
-45,65,-34,-1753,-1722,254235
9,74,-369,-1748,-1721,254188
35,71,-62,-1731,-1736,254086
31,60,278,-1719,-1745,254197
105,20,9,-1713,-1702,254249
267,-18,-159,-1702,-1696,254180
262,10,199,-1690,-1737,254213
100,39,407,-1714,-1672,254257
-34,97,0,-1719,-1718,254171
-51,139,-280,-1730,-1751,254264
-85,154,42,-1672,-1720,254284
-90,110,256,-1687,-1744,254397
20,-8,9,-1712,-1767,254343
147,-114,-124,-1716,-1680,254131
54,-127,257,-1688,-1773,254242
-176,-82,392,-1709,-1727,254361
-216,-23,29,-1778,-1673,254210
-86,10,-229,-1769,-1733,254180
-39,64,28,-1719,-1709,254212
-107,66,102,-1723,-1671,254339
-63,22,-267,-1802,-1739,254287
67,-36,-365,-1726,-1793,254195
16,-38,66,-1733,-1790,254164
-150,19,242,-1743,-1708,254240
-176,30,-166,-1727,-1707,254288
-151,35,-287,-1701,-1632,254277
-40,-9,110,-1727,-1665,254250
-45,-86,188,-1724,-1699,254269
57,-140,-200,-1780,-1763,254242
170,-145,-177,-1738,-1756,254170
79,-56,278,-1734,-1746,254159
-145,84,227,-1719,-1690,254234
-204,194,-237,-1761,-1726,254280
-103,229,-238,-1784,-1720,254211
-69,214,118,-1625,-1712,254319
-126,132,76,-1688,-1721,254276
-79,-14,-276,-1714,-1699,254266
21,-137,-177,-1744,-1760,254138
-46,-134,274,-1683,-1701,254141
-218,-32,245,-1713,-1695,254207
-267,83,-205,-1793,-1647,254290
-191,156,-229,-1715,-1716,254160
-164,162,141,-1694,-1728,254218
-175,120,56,-1735,-1734,254272
-114,57,-359,-1683,-1811,254178
-43,39,-278,-1744,-1725,254255
-111,77,191,-1668,-1709,254271
-243,139,166,-1740,-1687,254272
-244,181,-199,-1794,-1630,254209
-143,163,-90,-1706,-1733,254163
-112,146,353,-1657,-1759,254216
-44,69,241,-1715,-1787,254277
61,-17,-212,-1738,-1746,254264
106,-29,-59,-1724,-1787,254192
9,48,327,-1701,-1797,254177
-80,155,123,-1769,-1740,254178
-40,245,-253,-1758,-1722,254163
-4,254,-59,-1632,-1649,254215
-103,178,306,-1684,-1663,254390
-147,52,148,-1718,-1716,254329
-4,-61,-195,-1812,-1766,254150
118,-65,-15,-1684,-1700,254174
117,31,301,-1698,-1709,254278
92,107,65,-1823,-1728,254261
205,120,-251,-1774,-1771,254220
253,110,11,-1743,-1762,254177
159,93,294,-1698,-1755,254163
81,38,15,-1696,-1749,254248
135,-40,-373,-1744,-1662,254156
151,-42,-185,-1662,-1716,254271
78,-1,78,-1725,-1747,254343
75,61,-150,-1806,-1675,254295
176,77,-341,-1701,-1655,254180
182,24,31,-1735,-1689,254181
43,-40,408,-1827,-1703,254303
0,-139,148,-1724,-1793,254211
99,-166,-168,-1770,-1749,254143
117,-116,-38,-1679,-1749,254193
12,-31,101,-1698,-1722,254236
-58,15,-249,-1720,-1772,254171
22,-3,-415,-1742,-1726,254220
55,-2,76,-1821,-1809,254343
-21,2,385,-1729,-1766,254290
-57,-42,-16,-1805,-1755,254280
29,-93,-327,-1797,-1713,254153
41,-97,-67,-1713,-1740,254116
-30,-57,45,-1733,-1718,254248
-34,-16,-341,-1724,-1720,254282
49,-25,-417,-1737,-1731,254230
48,-36,119,-1687,-1744,254203
-52,-2,371,-1709,-1753,254211
-89,45,-69,-1693,-1781,254264
-13,124,-265,-1788,-1700,254107
-47,205,67,-1767,-1736,254214
-186,195,133,-1757,-1688,254315
-223,92,-216,-1797,-1696,254225
-132,-47,-147,-1839,-1749,254186
-87,-116,455,-1775,-1758,254273
-101,-142,660,-1759,-1775,254318
-172,-90,203,-1770,-1747,254268
-65,-22,-48,-1690,-1713,254230
-122,70,231,-1715,-1663,254235
-230,161,150,-1657,-1712,254295
-228,143,-364,-1745,-1758,254262
-155,33,-300,-1716,-1781,254201
-163,-47,219,-1716,-1783,254251
-260,-94,291,-1808,-1753,254362
-236,-69,-70,-1743,-1743,254207
-93,5,-156,-1689,-1730,254065
-68,19,144,-1682,-1728,254196
-64,24,73,-1770,-1739,254437
20,-47,-415,-1762,-1816,254184
106,-124,-354,-1716,-1801,254144
57,-100,104,-1659,-1816,254308
-117,-30,145,-1744,-1721,254332
-124,71,-119,-1704,-1735,254224
-57,150,-176,-1639,-1721,254274
-77,198,159,-1730,-1677,254335
-47,160,94,-1701,-1712,254236
21,4,-371,-1733,-1734,254122
138,-129,-253,-1751,-1704,254134
80,-181,149,-1702,-1733,254268
-70,-120,160,-1691,-1742,254358
-23,-11,-107,-1730,-1721,254326
-57,135,-16,-1635,-1773,254208
-140,267,268,-1728,-1799,254253
-155,271,-5,-1791,-1777,254307
18,175,-400,-1791,-1737,254247
232,59,-227,-1764,-1727,254141
169,16,179,-1685,-1739,254227
42,-2,153,-1758,-1798,254311
62,-22,-49,-1726,-1730,254274
21,9,147,-1710,-1693,254261
-70,99,379,-1729,-1760,254329
-118,111,72,-1717,-1704,254338
-3,70,-320,-1744,-1761,254192
184,39,-84,-1742,-1725,254144
233,85,166,-1768,-1756,254185
190,145,-15,-1737,-1722,254124
185,168,-220,-1761,-1746,254188
162,221,19,-1648,-1704,254180
-12,161,307,-1663,-1781,254259
-152,51,41,-1769,-1748,254284
-101,-40,-314,-1825,-1682,254247
-7,-147,-81,-1677,-1767,254160
43,-110,306,-1715,-1792,254266
57,-52,8,-1779,-1738,254280
215,34,-246,-1698,-1722,254241
228,137,53,-1751,-1727,254212
0,110,230,-1775,-1764,254362
-169,85,-108,-1704,-1709,254339
-175,-20,-465,-1774,-1706,254203
-133,-127,-51,-1792,-1733,254173
-133,-75,211,-1807,-1688,254339
-92,-11,-141,-1807,-1715,254174
118,-25,-222,-1706,-1695,254193
217,-2,158,-1730,-1681,254212
175,-25,347,-1682,-1707,254383
24,-113,-6,-1729,-1669,254368
-95,-157,-297,-1709,-1695,254199
-159,-152,32,-1777,-1720,254185
-190,-92,207,-1719,-1661,254326
-123,41,-129,-1766,-1764,254230
39,114,-233,-1725,-1733,254132
57,168,150,-1682,-1761,254185
-74,123,327,-1782,-1748,254296
-142,-11,16,-1812,-1728,254282
-96,-62,-169,-1743,-1741,254125
-113,-86,150,-1710,-1686,254146
-224,-58,243,-1761,-1739,254108
-215,16,-185,-1737,-1767,254070
-36,40,-278,-1722,-1740,254135
18,64,176,-1708,-1855,254302
-60,97,256,-1718,-1704,254329
-98,88,-194,-1686,-1693,254256
-109,44,-273,-1717,-1715,254100
-178,52,90,-1798,-1784,254225
-253,46,68,-1799,-1769,254232
-136,73,-326,-1733,-1676,254205
-9,66,-307,-1679,-1632,254188
-70,41,184,-1679,-1688,254278
-162,47,265,-1780,-1730,254310
-144,-1,-69,-1804,-1659,254287
-79,-25,59,-1762,-1738,254023
-110,64,302,-1655,-1706,254189
-199,113,40,-1696,-1709,254278
-137,78,-335,-1642,-1824,254207
-2,37,-174,-1726,-1760,254178
37,-16,248,-1719,-1710,254293
37,-59,242,-1676,-1676,254235
67,-106,-69,-1804,-1766,254079
84,-126,77,-1755,-1818,254130
14,-52,298,-1737,-1772,254288
-59,26,16,-1766,-1796,254334
28,56,-365,-1710,-1793,254272
112,74,-282,-1699,-1747,254199
62,64,122,-1777,-1774,254260
13,10,53,-1774,-1842,254412
44,27,-233,-1729,-1770,254209
52,69,-55,-1687,-1710,254179
-55,136,251,-1679,-1753,254243
-133,165,-37,-1739,-1689,254265
-29,97,-405,-1765,-1788,254274
61,24,-183,-1748,-1707,254294
135,-31,246,-1774,-1781,254323
177,-74,130,-1795,-1777,254373
191,-56,-130,-1725,-1664,254210
121,63,80,-1741,-1706,254104
-41,173,325,-1704,-1735,254372
-83,290,-16,-1771,-1698,254302
-2,315,-439,-1737,-1716,254306
84,252,-192,-1637,-1710,254269
85,133,217,-1608,-1751,254207
59,-12,145,-1737,-1714,254191
127,-63,-106,-1752,-1761,254245
88,-3,82,-1776,-1740,254225
-15,96,395,-1735,-1705,254277
-119,150,92,-1750,-1658,254392
-84,132,-367,-1735,-1704,254209
22,101,-125,-1773,-1793,254177
-4,53,143,-1710,-1721,254256
51,48,-87,-1743,-1749,254214
158,66,-337,-1752,-1707,254202
155,85,-32,-1709,-1758,254177
46,129,287,-1721,-1699,254338
-66,132,-93,-1741,-1675,254376
-21,69,-352,-1758,-1721,254178
9,-27,-56,-1710,-1691,254198
6,-118,177,-1725,-1703,254270
126,-176,-89,-1707,-1742,254260
174,-122,-266,-1704,-1702,254211
197,-23,70,-1741,-1676,254232
22,103,250,-1716,-1678,254324
-114,166,-98,-1787,-1674,254275
-54,82,-249,-1789,-1701,254186
-1,-18,101,-1693,-1728,254212
-27,-79,295,-1726,-1726,254316
-12,-174,-45,-1695,-1724,254310
103,-221,-173,-1671,-1787,254145
165,-195,235,-1670,-1727,254212
3,-98,327,-1679,-1796,254404
-103,-5,-87,-1754,-1703,254239
-46,29,-150,-1735,-1723,254247
-62,44,204,-1704,-1772,254345
-212,37,176,-1772,-1776,254390
-296,15,-251,-1810,-1783,254231
-221,0,-222,-1787,-1773,254119
-210,19,223,-1668,-1787,254213
-315,50,270,-1750,-1778,254267
-366,22,-46,-1780,-1762,254258
-282,-5,-72,-1760,-1693,254246
-277,-50,243,-1782,-1706,254186
-325,-71,170,-1724,-1716,254239
-250,-98,-284,-1830,-1742,254191
-97,-82,-352,-1737,-1747,254158
-17,-1,17,-1727,-1746,254287
-58,80,50,-1753,-1715,254239
-126,69,-240,-1717,-1734,254228
-154,55,-178,-1731,-1797,254307
-170,19,241,-1709,-1749,254301
-226,-73,196,-1785,-1743,254270
-170,-122,-277,-1744,-1759,254197
-29,-140,-193,-1725,-1708,254156
47,-113,292,-1734,-1742,254134
40,-68,276,-1716,-1791,254266
51,-5,-93,-1772,-1719,254215
8,114,-13,-1765,-1675,254120
-150,179,279,-1728,-1690,254306
-210,138,121,-1704,-1716,254389
-79,68,-303,-1686,-1771,254290
62,35,-235,-1723,-1711,254137
71,25,142,-1709,-1714,254288
3,-4,36,-1844,-1668,254387
50,-64,-171,-1853,-1703,254336
61,-42,49,-1764,-1693,254287
-107,44,307,-1768,-1703,254299
-213,85,80,-1740,-1742,254222
-106,66,-297,-1754,-1745,254173
58,52,-227,-1744,-1734,254145
148,81,24,-1737,-1640,254268
140,157,-140,-1761,-1649,254197
216,201,-445,-1722,-1654,254279
141,198,-173,-1680,-1688,254241
-75,211,268,-1733,-1730,254118
-152,196,92,-1748,-1764,254309
3,144,-249,-1743,-1732,254281
144,126,-78,-1690,-1742,254212
178,94,222,-1652,-1713,254341
227,96,64,-1714,-1705,254287
350,108,-207,-1702,-1708,254185
313,157,99,-1660,-1669,254156
62,275,390,-1689,-1703,254194
-156,299,101,-1727,-1696,254240
-152,242,-134,-1783,-1714,254136
-32,158,122,-1756,-1663,254166
-46,122,366,-1718,-1719,254291
8,81,78,-1765,-1734,254230
137,14,-178,-1715,-1688,254163
180,-5,170,-1684,-1725,254153
69,20,356,-1711,-1789,254183
-35,20,-16,-1715,-1761,254307
16,18,-278,-1732,-1702,254248
14,-7,-113,-1719,-1643,254284
-39,-53,9,-1721,-1672,254304
5,-124,-327,-1753,-1720,254282
55,-145,-469,-1737,-1709,254187
100,-63,-63,-1718,-1745,254161
-28,13,167,-1707,-1688,254190
-53,-12,-164,-1771,-1667,254259
51,-124,-355,-1761,-1716,254197
91,-231,6,-1698,-1696,254166
28,-258,139,-1703,-1734,254254
-39,-261,-280,-1699,-1650,254215
-53,-184,-363,-1701,-1698,254202
-137,-47,57,-1769,-1741,254223
-239,66,291,-1752,-1713,254278
-201,146,-41,-1782,-1681,254249
-121,110,-176,-1723,-1685,254099
-94,30,254,-1718,-1723,254132
-135,-102,368,-1860,-1701,254275
-127,-241,-76,-1813,-1779,254216
-67,-238,-183,-1768,-1742,254130
-118,-115,252,-1645,-1685,254130
-165,37,328,-1636,-1676,254201
-127,121,-79,-1748,-1733,254225
-63,148,-126,-1784,-1705,254246
-47,95,275,-1775,-1743,254312
-133,1,258,-1700,-1740,254285
-58,-57,-191,-1684,-1788,254184
36,-69,-258,-1713,-1722,254177
14,35,44,-1765,-1617,254281
-48,112,96,-1787,-1667,254291
-56,84,-121,-1788,-1724,254248
28,33,26,-1753,-1698,254165
-9,-58,472,-1734,-1770,254129
-29,-113,395,-1731,-1729,254338
99,-119,-73,-1739,-1775,254188
209,-85,-165,-1675,-1720,254163
131,30,76,-1698,-1707,254147
-46,104,-11,-1665,-1659,254320
-53,174,-368,-1778,-1668,254262
-35,209,-288,-1789,-1689,254131
-148,167,92,-1728,-1707,254220
-223,58,72,-1691,-1732,254278
-65,-69,-268,-1834,-1752,254257
108,-89,-195,-1788,-1697,254225
41,-20,62,-1754,-1675,254229
-80,92,-85,-1772,-1702,254271
-76,151,-364,-1814,-1735,254233
-34,158,-115,-1747,-1702,254248
-83,187,283,-1757,-1751,254265
-142,152,69,-1736,-1777,254308
-42,96,-285,-1650,-1740,254278
-66,58,-125,-1696,-1692,254255
-81,-3,228,-1788,-1662,254284
-115,21,144,-1789,-1619,254234
99,3,-150,-1715,-1664,254234
218,45,131,-1626,-1726,254225
101,88,457,-1646,-1741,254369
-50,74,195,-1663,-1654,254465
-73,49,-218,-1700,-1676,254222
-55,84,-83,-1714,-1678,254117
-63,155,192,-1742,-1661,254271
-54,146,-85,-1746,-1661,254264
23,99,-275,-1680,-1703,254189
10,37,176,-1716,-1716,254238
-99,-27,542,-1750,-1734,254323
-150,-45,267,-1750,-1745,254241
-89,-80,-198,-1679,-1750,254118
-45,-38,-25,-1692,-1755,254175
-28,-8,135,-1769,-1767,254328
42,21,-211,-1740,-1677,254254
170,64,-483,-1695,-1695,254151
160,53,-164,-1757,-1685,254154
49,52,270,-1677,-1793,254218
-18,-9,-16,-1797,-1765,254221
-33,-21,-344,-1749,-1642,254229
-99,-21,-86,-1730,-1708,254260
-175,9,160,-1776,-1672,254252
-154,-41,-201,-1799,-1735,254274
20,-83,-398,-1776,-1742,254172
118,-37,80,-1723,-1677,254120
85,21,335,-1672,-1757,254328
67,86,-8,-1694,-1708,254282
71,91,-283,-1724,-1747,254252
-12,99,55,-1755,-1786,254173
-151,134,145,-1765,-1703,254283
-104,155,-273,-1741,-1728,254331
48,159,-388,-1758,-1712,254206
56,123,-8,-1717,-1738,254285
-2,73,354,-1740,-1690,254264
14,6,83,-1749,-1745,254342
98,8,-64,-1736,-1715,254282
11,77,259,-1709,-1700,254203
-145,146,312,-1757,-1803,254299
-148,120,-34,-1810,-1675,254344
-16,52,-186,-1758,-1715,254298
53,81,212,-1704,-1693,254320
-46,143,249,-1769,-1725,254353
-75,161,-110,-1791,-1825,254268
-21,130,-130,-1721,-1717,254155
-103,102,153,-1716,-1681,254180
-215,62,176,-1713,-1706,254274
-186,16,-284,-1729,-1717,254304
-19,-86,-318,-1747,-1784,254207
-52,-178,121,-1725,-1763,254267
-70,-233,231,-1707,-1784,254226
-17,-241,-189,-1771,-1724,254301
20,-155,-238,-1765,-1738,254278
-78,-36,188,-1750,-1721,254261
-188,54,54,-1770,-1667,254256
-153,43,-456,-1761,-1737,254240
7,5,-371,-1740,-1687,254221
113,-23,154,-1737,-1656,254181
124,-72,110,-1722,-1796,254322
158,-146,-215,-1754,-1721,254291
146,-211,30,-1730,-1718,254266
4,-169,451,-1708,-1788,254236
-157,-75,243,-1723,-1717,254237
-116,15,-217,-1753,-1747,254164
5,61,-169,-1731,-1721,254168
25,32,186,-1776,-1715,254246
91,6,166,-1761,-1750,254239
159,-38,-189,-1712,-1723,254260
167,0,-5,-1640,-1735,254213
8,69,450,-1703,-1719,254172
-119,93,293,-1760,-1712,254257
-81,41,-133,-1747,-1744,254226
-40,40,-30,-1769,-1753,254064
-30,46,341,-1729,-1731,254237
-18,55,158,-1685,-1786,254303
123,27,-258,-1697,-1805,254237
153,57,-67,-1722,-1743,254160
60,150,262,-1722,-1702,254230
-39,223,19,-1724,-1674,254263
2,214,-445,-1742,-1734,254212
34,162,-211,-1792,-1772,254195
-25,108,88,-1714,-1741,254342
24,32,-56,-1735,-1659,254235
177,42,-371,-1742,-1710,254195
207,79,-119,-1676,-1677,254205
22,163,232,-1797,-1600,254337
-73,175,-39,-1747,-1760,254301
-33,146,-387,-1732,-1767,254219
12,133,-257,-1716,-1718,254129
-59,112,123,-1752,-1737,254230
-44,39,-190,-1733,-1694,254368
83,-37,-290,-1720,-1683,254255
29,-8,19,-1703,-1681,254163
-160,63,446,-1673,-1709,254310
-306,126,-14,-1745,-1720,254251
-192,68,-238,-1773,-1739,254201
-115,-19,67,-1757,-1750,254173
-152,-102,316,-1623,-1768,254302
-149,-158,-125,-1728,-1700,254330
-24,-133,-386,-1731,-1715,254145
43,-40,68,-1665,-1759,254213
-86,104,234,-1706,-1765,254196
-153,182,-67,-1836,-1701,254322
-83,163,-290,-1790,-1746,254208
-93,86,144,-1698,-1725,254095
-173,-37,281,-1669,-1651,254345
-130,-176,-21,-1732,-1723,254213
33,-275,-232,-1684,-1692,254132
121,-203,196,-1756,-1724,254151
26,-48,299,-1711,-1677,254220
-23,100,-100,-1746,-1638,254219
-6,186,-224,-1746,-1635,254232
-14,185,194,-1764,-1710,254277
-134,134,266,-1795,-1696,254386
-150,6,-204,-1860,-1678,254251
-105,-123,-253,-1852,-1774,254137
-104,-170,207,-1788,-1768,254169
-184,-127,312,-1735,-1731,254334
-188,-55,-125,-1757,-1707,254327
-164,34,-117,-1773,-1727,254300
-196,67,292,-1716,-1691,254271
-228,17,340,-1725,-1710,254351
-173,-48,-120,-1668,-1784,254245
-63,-106,-203,-1714,-1679,254168
-83,-77,121,-1695,-1732,254246
-101,-45,162,-1693,-1736,254270
-97,3,-209,-1744,-1720,254159
-19,8,-200,-1807,-1677,254135
-105,-1,290,-1711,-1740,254194
-233,-69,250,-1762,-1792,254269
-178,-168,-233,-1726,-1741,254318
-37,-203,-227,-1706,-1801,254132
50,-140,224,-1690,-1715,254143
75,-6,37,-1746,-1715,254284
150,75,-395,-1757,-1717,254268
158,132,-275,-1684,-1740,254183
15,158,171,-1729,-1729,254228
-105,136,118,-1781,-1688,254238
-55,87,-220,-1776,-1722,254211
44,59,-116,-1741,-1718,254255
-24,73,150,-1756,-1685,254398
-23,81,71,-1705,-1779,254344
79,132,-251,-1725,-1675,254230
148,198,-47,-1736,-1710,254236
67,271,331,-1686,-1651,254184
-4,267,196,-1690,-1687,254198
72,199,-221,-1706,-1698,254241
107,191,-114,-1686,-1716,254186
47,204,174,-1698,-1707,254185
14,236,-100,-1778,-1673,254319
23,237,-374,-1762,-1675,254268
50,222,-135,-1714,-1733,254218
-17,219,315,-1684,-1780,254349
7,196,109,-1717,-1761,254363
172,122,-243,-1681,-1830,254150
270,90,-21,-1676,-1756,254161
240,76,177,-1626,-1731,254291
214,50,-136,-1759,-1778,254275
304,64,-452,-1746,-1779,254093
280,107,-111,-1713,-1791,254188
115,170,175,-1726,-1779,254284
-16,127,-2,-1726,-1766,254197
-8,61,-207,-1734,-1738,254222
40,-38,154,-1744,-1711,254225
73,-99,378,-1728,-1765,254362
174,-176,-36,-1671,-1732,254309
277,-224,-265,-1740,-1773,254181
289,-163,63,-1706,-1794,254138
143,-113,348,-1732,-1808,254274
63,-48,44,-1713,-1686,254362
35,-27,-97,-1734,-1701,254287
-84,-12,154,-1771,-1734,254289
-167,-38,325,-1759,-1714,254267
-207,-79,-118,-1705,-1713,254289
-56,-153,-386,-1756,-1741,254150
-22,-179,-32,-1733,-1780,254269
-37,-202,161,-1771,-1787,254384
-63,-238,-112,-1693,-1716,254148
-43,-231,-276,-1689,-1726,254196
-141,-208,127,-1747,-1796,254205
-282,-169,199,-1699,-1680,254363
-323,-172,-191,-1724,-1761,254296
-310,-145,-423,-1702,-1706,254208
-297,-97,-55,-1718,-1731,254212
-338,-23,130,-1770,-1703,254347
-301,15,-173,-1796,-1692,254322
-305,28,-206,-1726,-1715,254253
-352,36,217,-1702,-1746,254173
-401,6,371,-1706,-1742,254285
-335,13,-67,-1763,-1740,254262
-230,24,-123,-1634,-1714,254125
-222,113,199,-1725,-1684,254146
-197,168,349,-1822,-1716,254324
-141,231,16,-1768,-1715,254267
-42,276,22,-1745,-1749,254201
-133,330,390,-1727,-1730,254268
-203,314,408,-1748,-1764,254283
-153,217,63,-1782,-1695,254283
3,130,-58,-1657,-1676,254313
120,37,269,-1782,-1782,254317
34,72,250,-1747,-1721,254382
160,21,-80,-1790,-1686,254197
189,19,-102,-1776,-1763,254214
139,10,388,-1760,-1740,254237
-19,26,265,-1758,-1743,254366
-16,20,-306,-1711,-1746,254251
-5,58,-368,-1730,-1758,254250
-20,105,-101,-1706,-1719,254190
-24,96,-183,-1665,-1673,254273
143,65,-605,-1692,-1695,254333
298,-33,-399,-1753,-1722,254166
188,-78,-21,-1703,-1679,254232
53,-153,-73,-1802,-1757,254255
18,-186,-519,-1711,-1778,254205
119,-152,-363,-1735,-1689,254128
58,-7,-9,-1726,-1692,254215
34,120,-213,-1749,-1609,254237
141,154,-493,-1794,-1599,254173
275,172,-237,-1631,-1675,254169
229,160,268,-1719,-1768,254250
91,156,47,-1759,-1764,254291
80,105,-155,-1782,-1742,254262
40,74,22,-1779,-1746,254257
29,60,394,-1671,-1769,254307
16,85,99,-1684,-1739,254342
169,129,-147,-1781,-1709,254303
181,204,150,-1780,-1690,254209
107,225,536,-1758,-1719,254317
5,190,397,-1700,-1821,254379
-8,124,-44,-1691,-1815,254245
-90,133,173,-1733,-1769,254271
-244,175,254,-1727,-1778,254363
-241,160,25,-1732,-1716,254322
-101,76,-408,-1755,-1768,254270
45,6,126,-1700,-1788,254215
-11,-40,354,-1806,-1738,254331
-48,-85,161,-1751,-1746,254310
-73,-130,-208,-1671,-1747,254335
-133,-122,143,-1708,-1781,254308
-246,-97,247,-1718,-1782,254311
-221,-55,-105,-1758,-1784,254279
-79,-44,-402,-1784,-1713,254172
-66,0,-119,-1695,-1776,254198
-37,-26,173,-1788,-1738,254179
71,-64,-20,-1779,-1730,254223
193,-93,-158,-1731,-1801,254230
61,-67,75,-1710,-1823,254268
-116,-47,268,-1747,-1705,254345
-105,-111,-118,-1740,-1706,254331
27,-169,-337,-1786,-1723,254222
96,-164,-9,-1725,-1735,254224
-20,-82,278,-1734,-1755,254286
65,-50,-72,-1684,-1692,254341
95,5,-288,-1734,-1672,254197
17,91,48,-1707,-1704,254238
-93,125,117,-1751,-1781,254299
-88,106,-256,-1766,-1713,254337
-9,27,-373,-1760,-1604,254244
-44,-34,58,-1699,-1735,254183
-57,-109,224,-1682,-1800,254224
11,-165,-66,-1698,-1817,254212
62,-160,-36,-1719,-1803,254108
-67,-98,331,-1747,-1751,254252
-218,-26,340,-1734,-1716,254262
-249,34,-148,-1804,-1723,254218
-190,106,-319,-1715,-1729,254152
-215,176,33,-1756,-1688,254206
-226,165,116,-1805,-1688,254217
-189,66,-163,-1820,-1726,254305
-92,-76,-136,-1755,-1760,254208
-69,-149,384,-1739,-1762,254254
-128,-146,391,-1778,-1785,254257
-144,-87,-133,-1792,-1733,254229
-123,-14,-209,-1699,-1685,254129
-66,13,131,-1685,-1638,254127
-15,14,82,-1711,-1701,254291
8,59,-350,-1697,-1740,254328
93,94,-243,-1692,-1818,254156
61,163,175,-1771,-1768,254265
-35,182,93,-1743,-1699,254335
-45,134,-341,-1704,-1735,254221
18,88,-269,-1663,-1721,254116
3,66,168,-1772,-1660,254304
-19,28,84,-1813,-1719,254352
63,13,-278,-1782,-1711,254200
82,-3,-135,-1693,-1723,254213
13,49,300,-1723,-1741,254232
-92,125,197,-1748,-1727,254311
-67,201,-342,-1769,-1722,254280
-26,226,-288,-1703,-1781,254278
-62,223,169,-1679,-1748,254222
-16,175,98,-1715,-1655,254267
83,108,-323,-1755,-1718,254230
160,87,-92,-1757,-1749,254200
69,66,403,-1781,-1752,254297
-76,65,241,-1794,-1724,254371
-67,88,-185,-1732,-1774,254255
-79,110,-46,-1728,-1725,254294
-108,144,354,-1697,-1699,254291
-83,112,90,-1721,-1646,254217
131,80,-238,-1766,-1727,254167
230,130,-9,-1708,-1738,254136
92,171,319,-1695,-1637,254215
-72,187,144,-1698,-1776,254338
-86,148,-162,-1677,-1714,254221
-90,121,83,-1686,-1661,254145
-155,82,292,-1687,-1753,254293
-92,-8,-58,-1787,-1690,254197
122,-89,-286,-1759,-1763,254133
266,-116,18,-1707,-1750,254168
188,-69,250,-1645,-1710,254357
115,-29,-121,-1736,-1703,254354
130,5,-382,-1738,-1697,254264
52,57,-133,-1739,-1801,254288
-66,35,64,-1762,-1738,254375
-41,-11,-189,-1805,-1713,254203
154,-103,-396,-1715,-1784,254110
235,-103,-67,-1664,-1680,254176
178,-45,140,-1721,-1795,254277
124,-42,-135,-1713,-1665,254232
149,-82,-227,-1661,-1650,254220
-1,-95,135,-1748,-1783,254283
-205,-104,289,-1804,-1715,254208
-272,-126,-108,-1763,-1761,254130
-192,-123,-295,-1758,-1642,254136
-130,-82,93,-1728,-1729,254096
-158,13,325,-1679,-1695,254246
-93,76,12,-1672,-1646,254342
-23,106,-143,-1775,-1721,254150
-123,119,241,-1749,-1759,254248
-241,90,389,-1745,-1753,254335
-233,-9,-8,-1755,-1718,254374
-113,-55,-225,-1788,-1826,254210
-98,-42,109,-1721,-1726,254130
-163,39,185,-1754,-1746,254307
-110,127,-266,-1853,-1603,254337
-23,192,-333,-1738,-1746,254075
-86,258,75,-1768,-1764,254189
-186,210,160,-1740,-1703,254309
-206,120,-173,-1651,-1695,254304
-116,18,-236,-1709,-1717,254179
-103,-43,135,-1710,-1764,254178
-25,-35,192,-1734,-1800,254201
98,-20,-91,-1648,-1748,254231
111,36,-65,-1746,-1738,254131
9,68,328,-1767,-1721,254345
-124,56,387,-1830,-1664,254363
-57,-1,-78,-1785,-1720,254241
2,-42,-209,-1706,-1728,254225
12,-44,161,-1741,-1754,254170
28,-94,123,-1724,-1737,254249
129,-158,-233,-1754,-1715,254252
233,-195,-172,-1694,-1708,254096
135,-158,289,-1675,-1767,254107
-30,-115,210,-1749,-1785,254213
-101,-122,-233,-1830,-1749,254206
-125,-137,-184,-1786,-1751,254231
-153,-98,184,-1776,-1751,254205
-160,-42,20,-1705,-1688,254231
-31,-24,-396,-1728,-1667,254210
98,10,-232,-1739,-1634,254208
67,-3,148,-1741,-1729,254314
51,-1,152,-1711,-1720,254261
62,-8,-194,-1689,-1727,254233
40,24,-89,-1690,-1759,254231
-76,50,212,-1766,-1746,254134
-112,20,-7,-1795,-1749,254265
39,3,-377,-1671,-1658,254204
133,32,-206,-1737,-1714,254175
86,140,154,-1673,-1717,254212
-12,199,34,-1720,-1724,254273
-34,216,-286,-1783,-1672,254213
-16,222,-71,-1802,-1691,254221
-101,228,198,-1731,-1626,254263
-119,232,-38,-1742,-1669,254384
-28,168,-302,-1788,-1669,254298
102,137,-27,-1735,-1678,254240
67,109,338,-1724,-1659,254275
55,105,142,-1699,-1776,254166
55,165,-5,-1722,-1714,254200
87,170,229,-1697,-1713,254224
-3,155,434,-1725,-1679,254322
-66,92,117,-1761,-1702,254311
-12,17,-293,-1737,-1750,254177
4,-19,-74,-1713,-1797,254237
-56,2,278,-1705,-1727,254230
-105,8,28,-1710,-1731,254248
-73,2,-285,-1719,-1738,254157
-15,-3,61,-1709,-1740,254132
-7,-40,369,-1680,-1657,254203
13,-84,16,-1766,-1732,254302
108,-140,-366,-1743,-1706,254248
122,-160,-62,-1699,-1709,254058
-10,-83,174,-1724,-1735,254299
-160,-15,-224,-1759,-1700,254276
-191,86,-400,-1802,-1685,254177
-193,177,-29,-1776,-1753,254226
-211,148,232,-1703,-1688,254302
-114,63,-92,-1701,-1732,254254
27,-113,-249,-1740,-1761,254207
56,-191,70,-1725,-1707,254361
-23,-171,233,-1716,-1761,254301
-65,-116,-82,-1724,-1805,254277
-37,-27,-237,-1711,-1811,254288
-124,60,121,-1739,-1693,254199
-236,149,332,-1793,-1660,254289
-242,156,-81,-1758,-1771,254250
-112,115,-351,-1837,-1736,254162
-51,104,10,-1694,-1661,254229
-120,146,181,-1714,-1696,254278
-55,181,-130,-1743,-1688,254185
8,163,-228,-1753,-1677,254201
-14,137,205,-1733,-1692,254276
-86,66,296,-1786,-1739,254276
-60,-50,-103,-1768,-1757,254285
36,-131,-166,-1743,-1776,254108
42,-122,127,-1676,-1762,254206
-12,-8,174,-1680,-1735,254359
50,113,-200,-1707,-1673,254258
214,210,-227,-1632,-1731,254122
133,272,131,-1624,-1748,254230
-85,200,257,-1688,-1779,254436
-119,52,-61,-1769,-1696,254328
14,-100,-135,-1739,-1774,254222
31,-135,248,-1722,-1761,254167
-25,-110,141,-1715,-1710,254293
63,-92,-245,-1739,-1751,254226
178,-29,-210,-1721,-1726,254141
207,39,192,-1712,-1679,254098
49,81,168,-1722,-1692,254194
2,48,-286,-1740,-1725,254220
39,-1,-287,-1787,-1694,254189
-19,-4,103,-1790,-1687,254264
-88,37,15,-1782,-1696,254263
12,65,-365,-1745,-1729,254288
158,76,-230,-1767,-1744,254263
117,72,282,-1742,-1771,254285
-53,8,312,-1777,-1781,254346
-84,-96,13,-1860,-1709,254227
-18,-117,92,-1793,-1744,254168
-124,-51,397,-1718,-1731,254327
-192,36,120,-1723,-1638,254309
-104,65,-357,-1723,-1680,254149
43,82,-182,-1730,-1687,254206
29,79,254,-1733,-1760,254287
-95,54,146,-1764,-1764,254327
-121,-7,-211,-1780,-1749,254274
-143,-56,-86,-1768,-1839,254168
-220,-54,282,-1759,-1736,254260
-216,-35,10,-1751,-1704,254310
-36,-36,-450,-1854,-1702,254262
126,-55,-240,-1760,-1673,254144
133,-52,192,-1657,-1748,254205
112,-49,58,-1733,-1808,254263
194,-15,-281,-1795,-1709,254156
201,41,-2,-1736,-1728,254153
35,106,343,-1788,-1799,254245
-105,119,19,-1792,-1726,254274
-6,69,-373,-1821,-1804,254169
131,27,-119,-1726,-1749,254145
139,35,259,-1759,-1750,254279
115,26,157,-1736,-1796,254366
160,-2,-27,-1757,-1734,254263
145,46,185,-1743,-1765,254271
-39,128,322,-1765,-1729,254317
-218,199,-78,-1708,-1766,254257
-165,191,-442,-1647,-1760,254192
-113,101,-190,-1700,-1699,254147
-130,16,148,-1759,-1753,254268
-128,-47,15,-1779,-1755,254301
-3,-94,-105,-1754,-1812,254284
8,-53,177,-1707,-1789,254222
-152,19,324,-1691,-1706,254343
-287,43,-63,-1760,-1708,254286
-190,55,-336,-1753,-1758,254274
-90,60,-124,-1723,-1786,254169
-145,79,50,-1709,-1794,254280
-115,54,-207,-1764,-1606,254335
47,16,-354,-1775,-1664,254269
111,41,29,-1666,-1792,254130
-21,110,243,-1717,-1752,254243
-110,130,-138,-1797,-1751,254340
-35,83,-296,-1779,-1785,254127
-5,34,112,-1698,-1737,254157
-69,25,296,-1689,-1759,254250
-66,49,-17,-1688,-1765,254301
73,79,-68,-1742,-1639,254292
56,142,377,-1834,-1690,254254
-99,177,476,-1670,-1704,254269
-179,150,29,-1727,-1740,254239
-119,102,-105,-1734,-1701,254207
-96,52,247,-1670,-1680,254281
-147,-16,242,-1782,-1698,254233
-50,-104,-158,-1755,-1684,254200
104,-158,-173,-1661,-1747,254127
71,-141,216,-1665,-1696,254274
-46,-97,208,-1722,-1668,254256
-62,-68,-228,-1783,-1720,254155
14,-38,-336,-1796,-1698,254196
10,16,-33,-1700,-1780,254198
-68,30,-109,-1789,-1770,254240
12,-2,-533,-1792,-1715,254353
101,-42,-471,-1766,-1634,254217
79,-79,21,-1702,-1639,254223
27,-106,98,-1686,-1745,254377
58,-155,-282,-1751,-1694,254348
123,-176,-239,-1669,-1773,254214
94,-137,162,-1703,-1725,254259
-21,-56,146,-1727,-1657,254278
107,-29,-257,-1716,-1766,254235
181,17,-197,-1676,-1776,254171
39,85,297,-1656,-1761,254218
-160,102,295,-1719,-1725,254279
-203,96,-35,-1722,-1702,254253
-221,94,114,-1791,-1732,254193
-329,92,440,-1770,-1765,254271
-411,76,252,-1722,-1741,254254
-279,12,-153,-1699,-1765,254208
-90,-26,-31,-1666,-1737,254188
-29,-16,285,-1706,-1732,254304
-12,-15,183,-1739,-1666,254236
20,0,-74,-1706,-1748,254183
-36,43,10,-1701,-1748,254186
-188,134,202,-1768,-1745,254251
-240,238,-40,-1763,-1708,254331
-114,278,-410,-1692,-1675,254330
6,284,-272,-1686,-1695,254129
-24,248,61,-1771,-1789,254229
-38,151,-3,-1736,-1684,254243
83,64,-214,-1738,-1748,254190
168,44,-1,-1731,-1747,254192
87,59,240,-1689,-1795,254303
-1,56,-38,-1658,-1762,254291
11,68,-349,-1676,-1762,254334
123,85,-122,-1816,-1745,254118
78,157,143,-1703,-1699,254241
23,199,-104,-1747,-1650,254264
30,201,-306,-1750,-1586,254179
4,163,7,-1703,-1701,254209
-94,110,266,-1715,-1760,254290
-132,30,-2,-1786,-1769,254256
-37,-78,-304,-1661,-1700,254186
22,-158,-41,-1654,-1715,254153
14,-211,234,-1686,-1713,254323
-1,-180,-3,-1751,-1756,254447
43,-107,-194,-1766,-1700,254388
52,-11,129,-1702,-1713,254225
-25,61,319,-1763,-1728,254247
-92,44,-89,-1825,-1715,254250
-45,-8,-271,-1774,-1716,254115
58,-47,121,-1727,-1755,254161
60,-76,339,-1683,-1675,254260
58,-105,-3,-1706,-1674,254274
98,-132,-124,-1708,-1800,254189
86,-127,256,-1701,-1733,254138
29,-81,379,-1666,-1740,254299
-2,-53,-35,-1725,-1760,254327
74,-43,-231,-1750,-1754,254252
56,-21,92,-1651,-1674,254281
-2,-23,181,-1663,-1695,254355
-14,8,-230,-1709,-1640,254165
30,55,-376,-1690,-1677,254117
-7,111,55,-1681,-1658,254318
-127,118,267,-1682,-1689,254400
-191,51,-70,-1657,-1707,254306
-139,-30,-203,-1622,-1702,254243
-144,-43,183,-1671,-1726,254319
-143,-30,237,-1721,-1682,254300
-25,-13,-255,-1796,-1710,254230
154,29,-363,-1736,-1666,254160
168,104,62,-1683,-1715,254214
33,184,177,-1752,-1705,254345
7,177,-187,-1748,-1754,254226
61,126,-166,-1735,-1759,254204
-6,73,258,-1627,-1715,254244
-105,57,220,-1752,-1760,254254
-6,43,-215,-1746,-1772,254216
169,42,-228,-1651,-1689,254246
169,71,183,-1663,-1678,254228
99,88,235,-1719,-1719,254246
116,52,-87,-1712,-1744,254193
122,30,-68,-1665,-1675,254057
-58,57,234,-1699,-1708,254216
-240,93,124,-1765,-1733,254186
-140,75,-324,-1783,-1759,254115
56,74,-275,-1717,-1706,254217
68,112,165,-1672,-1654,254337
-4,111,127,-1751,-1720,254366
31,58,-163,-1833,-1787,254277
66,17,55,-1758,-1712,254170
-56,-16,478,-1718,-1701,254239
-217,-15,215,-1730,-1732,254263
-207,-24,-307,-1744,-1734,254264
-77,-22,-227,-1778,-1716,254261
-41,19,81,-1762,-1687,254239
-57,32,-100,-1793,-1707,254314
23,-5,-379,-1680,-1649,254245
9,-35,-97,-1710,-1727,254213
-150,-51,240,-1679,-1739,254283
-275,-52,-7,-1709,-1716,254059
-165,-69,-402,-1757,-1753,254135
10,-85,-218,-1758,-1768,254216
18,-56,144,-1701,-1746,254333
-55,-49,10,-1767,-1682,254333
-23,-46,-228,-1738,-1747,254235
7,-20,87,-1707,-1696,254212
-79,20,400,-1702,-1669,254172
-194,52,16,-1713,-1727,254211
-136,44,-393,-1752,-1758,254184
-32,21,-131,-1741,-1724,254222
8,3,197,-1665,-1675,254278
38,-16,-37,-1712,-1639,254234
85,-31,-274,-1779,-1675,254190
31,10,101,-1685,-1759,254178
-133,92,428,-1741,-1754,254313
-180,150,90,-1728,-1749,254286
-94,170,-252,-1776,-1719,254251
-90,190,-35,-1708,-1752,254238
-211,184,157,-1718,-1770,254181
-196,153,-124,-1768,-1730,254262
-39,112,-283,-1727,-1652,254334
-11,134,134,-1722,-1698,254260
-141,167,460,-1736,-1716,254265
-208,134,114,-1772,-1621,254338
-147,64,-181,-1749,-1774,254119
-118,48,103,-1766,-1755,254146
-131,48,266,-1750,-1691,254217
-34,48,-93,-1736,-1709,254306
93,35,-289,-1661,-1689,254198
34,45,116,-1709,-1654,254192
-83,48,308,-1674,-1662,254292
-46,8,-72,-1661,-1683,254146
60,-34,-247,-1685,-1689,254082
-36,-35,73,-1639,-1671,254202
-124,-71,137,-1726,-1716,254291
8,-141,-238,-1748,-1741,254230
213,-145,-283,-1724,-1723,254219
212,-76,130,-1702,-1697,254229
116,-6,264,-1728,-1718,254384
135,14,-89,-1814,-1723,254343
160,43,-203,-1757,-1686,254211
50,105,117,-1728,-1746,254125
-39,184,130,-1745,-1742,254225
69,178,-340,-1761,-1676,254260
203,147,-363,-1720,-1731,254193
155,119,153,-1710,-1707,254196
33,56,264,-1746,-1677,254280
14,-15,-109,-1773,-1706,254268
9,-42,-62,-1705,-1715,254201
-105,-20,343,-1771,-1748,254235
-219,20,233,-1817,-1715,254263
-145,53,-233,-1787,-1737,254258
-34,105,-184,-1679,-1723,254175
-71,150,197,-1679,-1710,254191
-146,97,162,-1773,-1652,254357
-82,-27,-159,-1700,-1720,254276
-11,-137,-59,-1668,-1888,254168
-31,-181,242,-1683,-1770,254097
-46,-189,90,-1737,-1645,254270
101,-190,-366,-1774,-1684,254269
235,-172,-321,-1677,-1799,254225
251,-115,135,-1656,-1677,254237
201,-52,147,-1722,-1741,254189
194,-1,-199,-1763,-1748,254184
124,23,-126,-1764,-1632,254129
-56,45,226,-1729,-1744,254231
-179,31,83,-1683,-1728,254309
-132,5,-335,-1746,-1701,254262
-32,8,-212,-1790,-1722,254192
-1,23,275,-1792,-1721,254233
34,9,228,-1754,-1718,254295
122,-29,-110,-1718,-1733,254341
118,-12,104,-1719,-1783,254255
-49,65,450,-1739,-1759,254357
-165,152,170,-1750,-1604,254388
-96,198,-317,-1796,-1705,254186
-8,217,-237,-1744,-1673,254165
-9,212,110,-1729,-1682,254221
-23,154,-3,-1724,-1707,254284
16,65,-270,-1776,-1719,254264
-38,2,0,-1705,-1768,254189
-187,-5,400,-1662,-1746,254243
-216,-47,71,-1766,-1628,254388
-115,-67,-431,-1697,-1700,254196
-38,-47,-272,-1718,-1770,254076
-19,-22,72,-1695,-1757,254231
80,-8,-125,-1660,-1784,254300
232,18,-411,-1679,-1773,254211
206,108,-161,-1662,-1734,254198
-37,226,117,-1769,-1798,254215
-186,279,-126,-1874,-1661,254269
-138,229,-400,-1817,-1725,254240
-84,161,-53,-1793,-1725,254254
-92,67,300,-1791,-1751,254300
-15,-40,71,-1768,-1687,254209
151,-102,-82,-1728,-1728,254186
165,-83,331,-1729,-1788,254187
0,34,572,-1805,-1745,254295
-183,134,133,-1780,-1675,254293
-228,171,-197,-1714,-1678,254274
-307,184,97,-1730,-1713,254134
-384,119,232,-1739,-1705,254159
-311,19,-144,-1691,-1691,254245
-122,-58,-259,-1729,-1834,254234
-67,-103,128,-1725,-1757,254228
-174,-125,332,-1704,-1755,254249
-180,-161,-42,-1790,-1719,254322
-21,-216,-261,-1756,-1725,254230
-89,-178,63,-1667,-1738,254163
-152,-170,165,-1728,-1782,254215
-156,-171,-222,-1821,-1675,254224
-47,-134,-332,-1734,-1659,254128
-37,-34,99,-1735,-1730,254182
-135,119,282,-1666,-1747,254238
-160,214,-134,-1780,-1677,254240
-109,201,-297,-1800,-1700,254193
-117,130,121,-1720,-1695,254224
-159,17,279,-1718,-1745,254272
-71,-76,-140,-1736,-1792,254157
81,-101,-262,-1740,-1723,254206
96,-23,204,-1747,-1685,254160
-17,90,353,-1679,-1666,254185
-35,159,-89,-1712,-1714,254239
-9,217,-250,-1649,-1752,254204
-112,245,136,-1627,-1746,254235
-248,254,179,-1675,-1741,254337
-190,166,-250,-1737,-1698,254245
0,82,-275,-1686,-1656,254169
117,55,207,-1748,-1713,254228
179,20,279,-1686,-1780,254395
284,-56,-138,-1685,-1782,254287
331,-109,-131,-1711,-1810,254142
170,-129,326,-1712,-1783,254240
41,-113,325,-1731,-1741,254313
72,-79,-187,-1750,-1693,254223
204,-29,-311,-1726,-1739,254240
207,55,78,-1741,-1632,254288
167,109,59,-1731,-1699,254255
235,85,-362,-1730,-1700,254229
235,44,-293,-1847,-1765,254222
21,7,153,-1709,-1791,254222
-213,-58,78,-1741,-1748,254265
-203,-128,-342,-1739,-1734,254228
-70,-141,-242,-1738,-1721,254168
-6,-81,168,-1740,-1680,254293
-5,-3,78,-1768,-1773,254311
78,38,-271,-1720,-1741,254358
108,90,-99,-1680,-1715,254230
-38,174,265,-1658,-1719,254272
-145,223,48,-1733,-1705,254244
-69,206,-299,-1748,-1619,254219
40,143,-97,-1744,-1629,254232
9,57,262,-1747,-1783,254361
-1,-27,92,-1709,-1742,254280
122,-100,-211,-1714,-1734,254234
182,-105,57,-1739,-1749,254265
104,-51,429,-1770,-1672,254215
30,-28,173,-1791,-1736,254134
96,3,-250,-1714,-1683,254175
153,58,-108,-1721,-1722,254181
67,115,178,-1765,-1755,254310
-7,118,-39,-1710,-1707,254322
27,70,-270,-1834,-1726,254200
13,36,126,-1738,-1727,254201
-94,29,493,-1725,-1648,254259
-160,1,96,-1767,-1751,254326
-55,-66,-272,-1771,-1695,254292
-21,-90,47,-1702,-1716,254259
-109,-69,248,-1686,-1762,254383
-69,-53,-143,-1668,-1727,254393
115,7,-369,-1739,-1725,254225
139,101,4,-1619,-1733,254231
-35,189,258,-1702,-1658,254222
-162,231,-73,-1808,-1696,254345
-185,182,-305,-1807,-1711,254275
-261,136,58,-1693,-1695,254254
-334,72,273,-1681,-1641,254192
-241,-58,-61,-1743,-1697,254246
-63,-135,-272,-1801,-1760,254191
-78,-101,51,-1748,-1676,254161
-211,9,261,-1757,-1628,254235
-201,112,-52,-1715,-1655,254304
-96,179,-248,-1723,-1715,254235
-91,217,57,-1704,-1761,254215
-159,206,209,-1701,-1736,254329
-131,122,-189,-1735,-1744,254275
-84,60,-332,-1766,-1720,254265
-164,51,108,-1680,-1718,254170
-285,52,309,-1728,-1751,254284
-229,24,-20,-1715,-1767,254219
-94,-23,-122,-1709,-1741,254060
-128,-66,236,-1748,-1694,254182
-223,-127,261,-1756,-1726,254224
-149,-189,-188,-1709,-1711,254242
-30,-162,-319,-1774,-1703,254251
-79,-21,0,-1738,-1701,254221
-175,127,45,-1748,-1669,254371
-86,160,-238,-1735,-1666,254242
43,128,-163,-1707,-1706,254225
11,88,229,-1739,-1680,254352
-79,27,273,-1725,-1731,254365
-3,-50,-67,-1764,-1735,254330
124,-79,-146,-1722,-1694,254249
143,-63,175,-1700,-1712,254295
138,14,227,-1748,-1694,254304
208,80,-126,-1773,-1687,254286
242,145,-103,-1702,-1732,254158
159,174,142,-1724,-1798,254226
86,164,239,-1701,-1648,254251
188,105,-163,-1709,-1700,254149
288,52,-296,-1730,-1704,254097
202,60,197,-1696,-1739,254311
31,18,84,-1723,-1723,254353
-22,-58,-202,-1744,-1746,254275
16,-99,52,-1737,-1742,254227
-27,-140,299,-1664,-1775,254277
-91,-162,190,-1664,-1717,254314
-33,-184,-183,-1738,-1709,254253
45,-221,-393,-1734,-1739,254115
66,-173,-7,-1743,-1753,254122
62,-60,17,-1778,-1692,254226
104,8,-569,-1737,-1661,254254
151,82,-201,-1710,-1663,254183
94,108,383,-1762,-1665,254315
43,48,91,-1764,-1620,254348
90,-9,-306,-1722,-1687,254182
161,-27,-2,-1698,-1727,254135
120,-41,219,-1733,-1712,254305
52,-22,-97,-1739,-1766,254376
94,37,-221,-1727,-1727,254160
110,74,-66,-1729,-1722,254134
17,145,212,-1721,-1776,254238
-49,167,260,-1727,-1739,254336
-20,155,-43,-1770,-1669,254360
-74,111,-191,-1758,-1762,254311
-134,121,308,-1720,-1783,254308
-150,147,204,-1667,-1700,254257
-130,90,-484,-1669,-1749,254268
-92,112,-109,-1695,-1678,254160
-52,103,536,-1746,-1647,254271
-168,83,26,-1760,-1703,254431
-65,61,-337,-1684,-1745,254295
-21,94,179,-1683,-1768,254267
-121,70,57,-1708,-1691,254260
-176,82,-251,-1744,-1633,254321
-43,73,-335,-1799,-1677,254142
46,55,-239,-1831,-1696,254213
8,86,214,-1738,-1715,254239
-57,53,55,-1771,-1620,254236
-53,30,-236,-1768,-1673,254265
-118,26,218,-1732,-1704,254224
-222,77,301,-1684,-1740,254213
-218,88,-179,-1776,-1735,254330
-37,88,-297,-1753,-1726,254266
96,72,-15,-1717,-1755,254190
-29,48,418,-1734,-1737,254261
-83,20,134,-1734,-1682,254296
-35,-17,-27,-1777,-1726,254190
-123,36,499,-1748,-1748,254279
-254,53,256,-1705,-1692,254328
-213,34,-30,-1764,-1678,254251
-32,11,-160,-1716,-1682,254108
35,-37,-43,-1739,-1649,254238
-83,-37,445,-1702,-1679,254269
-162,-47,-41,-1794,-1703,254313
-139,-122,-253,-1794,-1702,254219
-162,-116,254,-1769,-1739,254216
-321,-97,31,-1765,-1731,254208
-318,-143,-369,-1774,-1733,254117
-81,-166,-411,-1795,-1770,254081
43,-243,-81,-1752,-1758,254200
31,-264,157,-1697,-1787,254287
53,-220,-213,-1729,-1732,254228
26,-152,-220,-1640,-1733,254313
-74,11,310,-1713,-1762,254221
-243,120,252,-1757,-1762,254339
-240,107,-388,-1633,-1730,254119
-103,146,-408,-1681,-1675,254190
-66,117,20,-1769,-1676,254273
-41,54,-22,-1708,-1678,254288
57,62,-207,-1745,-1691,254262
71,-9,-179,-1750,-1745,254096
-53,76,144,-1699,-1684,254199
-186,147,250,-1798,-1741,254242
-180,111,-344,-1780,-1680,254263
-4,191,-346,-1709,-1642,254170
78,124,164,-1697,-1693,254258
117,109,77,-1791,-1692,254312
153,146,-273,-1644,-1717,254229
135,102,-157,-1679,-1739,254099
32,241,385,-1871,-1627,254232
-60,238,225,-1814,-1709,254275
56,185,-228,-1797,-1690,254292
169,163,-12,-1686,-1702,254242
168,-24,236,-1774,-1760,254201
287,-91,328,-1803,-1718,254400
414,-218,19,-1651,-1769,254316
397,-206,-54,-1695,-1742,254232
243,2,537,-1743,-1792,254322
42,54,252,-1762,-1755,254310
33,216,-272,-1775,-1639,254243
60,217,-78,-1747,-1699,254112
-5,117,104,-1674,-1678,254252
56,111,94,-1772,-1807,254308
196,-145,-285,-1675,-1774,254225
252,-152,8,-1703,-1761,254121
125,-113,447,-1686,-1745,254260
-59,-131,-48,-1799,-1724,254217
-26,108,-116,-1798,-1724,254254
-84,76,-43,-1731,-1712,254129
-174,153,9,-1729,-1709,254259
-68,154,-31,-1767,-1755,254247
89,-82,-526,-1715,-1760,254178
158,47,-48,-1703,-1722,254169
-37,-57,283,-1771,-1738,254235
-146,-58,-71,-1775,-1669,254320
-45,70,-19,-1725,-1728,254211
-106,-68,-152,-1799,-1734,254210
-66,118,166,-1795,-1720,254255
51,-15,30,-1750,-1688,254267
229,-204,-572,-1792,-1674,254240
354,-98,80,-1741,-1773,254226
143,-217,328,-1743,-1798,254379
27,-23,-142,-1782,-1675,254378
-52,71,-190,-1741,-1771,254225
-215,95,-52,-1721,-1682,254258
-297,288,77,-1739,-1720,254225
-295,121,-157,-1749,-1755,254337
-39,106,-437,-1635,-1803,254204
51,-14,117,-1657,-1843,254224
-8,-121,497,-1736,-1722,254390
15,-24,-34,-1755,-1728,254320
-100,-89,3,-1778,-1756,254175
-247,121,296,-1793,-1691,254197
-419,178,102,-1791,-1660,254302
-423,141,-72,-1791,-1696,254315
-204,223,-358,-1759,-1660,254180
-153,27,-101,-1783,-1675,254157
-108,129,383,-1733,-1701,254384
-121,123,-151,-1761,-1725,254317
-204,44,-229,-1735,-1759,254216
-239,285,364,-1750,-1693,254298
-387,117,90,-1778,-1778,254296
-309,184,-90,-1838,-1701,254329
-203,153,-273,-1785,-1719,254266
-208,-72,-12,-1739,-1796,254151
-100,118,530,-1699,-1742,254308
-104,-62,-290,-1718,-1729,254253
-20,9,-154,-1756,-1643,254117
-60,211,479,-1746,-1701,254185
-283,64,3,-1790,-1711,254232
-164,172,-2,-1824,-1686,254231
-41,-31,-148,-1692,-1805,254170
-10,-184,-37,-1689,-1790,254236
91,-96,520,-1739,-1809,254264
107,-274,-171,-1763,-1803,254177
248,-113,-212,-1731,-1716,254204
172,23,399,-1721,-1720,254202
-47,68,-56,-1754,-1676,254321
-37,240,-355,-1686,-1716,254154
-65,76,-424,-1724,-1819,254199
-12,83,-207,-1701,-1739,254367
24,-6,90,-1694,-1746,254261
91,-173,-381,-1716,-1701,254303
238,-87,-348,-1719,-1733,254259
135,-114,348,-1709,-1781,254253
42,13,134,-1738,-1658,254270
69,45,-271,-1731,-1731,254208
85,20,-26,-1704,-1700,254139
129,113,169,-1733,-1690,254246
36,-75,171,-1780,-1701,254244
143,-118,-56,-1749,-1711,254301
189,-132,-140,-1754,-1756,254176
-11,-135,422,-1698,-1750,254219
-177,64,288,-1737,-1685,254403
-205,-61,-364,-1780,-1769,254192
-83,-78,23,-1685,-1742,254195
30,-90,268,-1716,-1772,254345
59,-330,-72,-1624,-1754,254284
162,-229,-209,-1717,-1688,254299
175,-231,-197,-1764,-1760,254218
73,-131,237,-1740,-1675,254304
-114,195,205,-1750,-1690,254304
-207,199,-437,-1774,-1702,254205
-152,305,-109,-1737,-1783,254114
-210,255,329,-1678,-1741,254312
-189,-6,-98,-1753,-1680,254312
19,-54,-256,-1726,-1712,254149
69,-140,35,-1680,-1751,254244
47,-74,366,-1714,-1782,254299
-21,70,119,-1701,-1757,254303
-26,105,-228,-1750,-1721,254252
86,210,212,-1719,-1732,254164
64,182,369,-1703,-1661,254238
43,159,-91,-1751,-1691,254221
151,174,-260,-1715,-1745,254151
186,134,-76,-1728,-1746,254160
66,211,67,-1744,-1752,254228
-4,244,21,-1750,-1778,254228
41,238,-284,-1754,-1708,254268
16,148,-151,-1771,-1706,254215
-36,48,440,-1759,-1745,254272
65,-104,-21,-1812,-1777,254315
235,-235,-499,-1770,-1713,254121
325,-114,230,-1734,-1713,254123
155,-13,240,-1724,-1702,254321
51,63,-279,-1758,-1693,254234
191,214,-111,-1706,-1731,254126
93,202,173,-1742,-1691,254254
-84,207,277,-1724,-1726,254315
-59,132,56,-1749,-1726,254198
14,-5,-127,-1730,-1775,254189
-20,-5,118,-1732,-1782,254138
-85,-15,231,-1704,-1661,254250
-74,15,-37,-1803,-1732,254258
-26,41,-211,-1717,-1756,254303
-178,-21,76,-1649,-1673,254256
-341,20,251,-1686,-1689,254336
-297,-18,-204,-1732,-1642,254195
-150,-30,-416,-1723,-1716,254084
-179,94,-62,-1638,-1685,254163
-202,93,-62,-1676,-1735,254196
-154,114,-296,-1798,-1722,254258
-30,92,-321,-1806,-1738,254214
-174,11,37,-1755,-1775,254173
-259,-28,291,-1703,-1748,254330
-237,-114,-103,-1740,-1766,254234
-230,-181,-354,-1711,-1718,254161
-129,-61,65,-1751,-1757,254225
-35,64,82,-1734,-1779,254264
31,104,-443,-1745,-1720,254281
50,156,-388,-1673,-1673,254182
-35,85,170,-1706,-1722,254259
-73,10,384,-1655,-1734,254191
-97,-41,-60,-1665,-1750,254207
-133,-101,-176,-1689,-1744,254217
-133,-42,481,-1725,-1761,254420
-170,-30,388,-1701,-1768,254426
-134,-52,-372,-1770,-1792,254267
-14,11,-69,-1730,-1691,254132
-89,23,633,-1772,-1698,254270
-209,21,268,-1746,-1712,254382
-186,35,-181,-1708,-1745,254179
-128,66,72,-1651,-1685,254133
-156,150,237,-1736,-1736,254265
-108,197,-66,-1777,-1698,254268
47,134,-338,-1636,-1692,254224
49,88,-181,-1732,-1737,254228
8,41,187,-1713,-1727,254318
-36,-34,250,-1777,-1698,254331
-1,-63,-67,-1745,-1706,254320
-19,21,-53,-1682,-1697,254149
-130,40,271,-1707,-1700,254213
-110,85,93,-1794,-1768,254386
145,125,-318,-1744,-1663,254177
236,51,-196,-1670,-1667,254131
163,60,298,-1700,-1696,254293
134,43,307,-1792,-1853,254491
168,-67,-118,-1725,-1749,254258
116,-18,23,-1698,-1720,254188
45,-2,398,-1660,-1686,254171
79,-58,87,-1683,-1777,254211
242,-79,-336,-1779,-1739,254239
300,-118,-16,-1767,-1702,254164
203,-87,314,-1687,-1706,254212
55,-40,-14,-1760,-1706,254293
18,19,-325,-1747,-1673,254186
20,130,-100,-1752,-1707,254190
-57,124,70,-1738,-1638,254173
-92,88,-289,-1786,-1696,254184
85,44,-492,-1789,-1745,254210
215,-76,-226,-1799,-1695,254253
78,-94,32,-1743,-1677,254212
42,-77,-178,-1762,-1699,254196
130,-18,-322,-1683,-1797,254241
103,52,23,-1711,-1704,254447
-64,83,75,-1704,-1685,254465
-90,101,-259,-1742,-1698,254279
78,43,-394,-1770,-1773,254119
149,-9,-194,-1748,-1683,254159
62,3,93,-1658,-1765,254263
-37,35,-36,-1755,-1714,254276
-26,96,-215,-1787,-1771,254208
-42,76,210,-1731,-1764,254279
-124,46,531,-1705,-1759,254308
-235,-22,18,-1791,-1735,254298
-224,-115,-247,-1754,-1716,254199
-188,-116,218,-1757,-1741,254234
-223,-83,239,-1803,-1724,254262
-187,-25,-247,-1789,-1669,254248
-89,64,-168,-1712,-1675,254152
-62,127,330,-1682,-1675,254181
-208,170,282,-1727,-1723,254338
-231,110,-104,-1741,-1706,254279
-115,46,20,-1749,-1710,254170
-57,33,271,-1681,-1726,254241
-48,46,157,-1694,-1742,254339
27,66,8,-1715,-1773,254315
87,63,2,-1726,-1715,254271
54,112,278,-1664,-1733,254266
-15,149,353,-1724,-1753,254318
-103,101,-69,-1640,-1774,254195
-119,39,-242,-1715,-1794,254127
-72,-19,107,-1727,-1782,254247
-6,-73,170,-1715,-1729,254318
149,-73,-271,-1713,-1666,254310
219,-53,-348,-1690,-1685,254216
152,-25,168,-1688,-1658,254312
16,-16,247,-1729,-1747,254360
-71,-56,-276,-1792,-1746,254254
-72,-34,-245,-1819,-1744,254124
-129,16,91,-1773,-1684,254173
-204,53,-88,-1799,-1610,254345
-110,40,-374,-1802,-1678,254419
38,21,-227,-1851,-1744,254189
35,77,126,-1791,-1756,254278
-71,94,257,-1740,-1702,254329
-79,73,-140,-1828,-1785,254325
-12,-8,-160,-1804,-1763,254189
-17,-68,401,-1705,-1800,254233
-7,-71,172,-1733,-1719,254305
92,-58,-318,-1724,-1665,254221
217,27,-133,-1711,-1621,254067
134,94,370,-1662,-1719,254271
-111,150,34,-1725,-1753,254286
-79,184,-161,-1740,-1751,254205
-63,217,-5,-1646,-1739,254251
-185,231,128,-1688,-1730,254257
-252,157,-134,-1770,-1702,254267
-50,11,-189,-1779,-1801,254161
52,-77,-94,-1732,-1670,254230
20,-98,187,-1739,-1702,254206
-38,-40,275,-1697,-1676,254241
-47,0,-151,-1606,-1653,254232
-90,21,-85,-1725,-1660,254272
-106,54,246,-1729,-1712,254328
-97,43,-55,-1730,-1673,254289
9,42,-495,-1726,-1664,254265
117,30,-141,-1691,-1755,254166
86,53,325,-1738,-1710,254284
42,29,34,-1690,-1768,254281
55,34,-271,-1746,-1755,254203
82,68,135,-1750,-1697,254134
13,31,306,-1729,-1696,254262
5,-36,-186,-1709,-1711,254281
119,-149,-345,-1766,-1694,254297
218,-167,91,-1733,-1690,254282
212,-95,211,-1681,-1730,254351
202,21,-94,-1698,-1764,254263
224,95,-196,-1733,-1748,254173
143,167,32,-1775,-1749,254277
45,165,119,-1738,-1713,254147
50,99,-80,-1623,-1713,254279
107,12,-275,-1684,-1757,254321
95,-127,-62,-1682,-1740,254213
100,-171,335,-1674,-1751,254260
157,-156,90,-1742,-1805,254264
125,-42,-247,-1751,-1764,254132
11,113,117,-1784,-1772,254090
-142,191,293,-1781,-1741,254242
-207,136,-247,-1747,-1697,254210
-138,56,-423,-1727,-1751,254152
-101,19,141,-1742,-1696,254198
-111,-18,275,-1689,-1713,254322
-103,-17,-130,-1713,-1759,254359
-117,16,-55,-1744,-1720,254098
-248,116,354,-1742,-1657,254252
-301,188,353,-1814,-1662,254405
-224,187,-33,-1792,-1712,254289
-130,156,-65,-1654,-1857,254298
-205,114,190,-1752,-1800,254296
-229,83,201,-1788,-1745,254368
-124,65,-124,-1801,-1696,254188
-59,148,-273,-1744,-1718,254199
-201,216,17,-1723,-1692,254269
-345,235,99,-1804,-1702,254290
-336,154,-215,-1777,-1739,254290
-314,48,-373,-1745,-1799,254269
-332,10,0,-1750,-1800,254236
-353,-38,48,-1770,-1723,254243
-236,-20,-310,-1783,-1760,254277
-127,31,-311,-1784,-1727,254266
-143,137,107,-1742,-1721,254301
-284,187,137,-1760,-1699,254406
-358,169,-247,-1748,-1661,254311
-350,123,-111,-1674,-1716,254195
-381,46,244,-1757,-1780,254209
-352,-8,233,-1763,-1748,254377
-210,-53,-122,-1718,-1811,254178
-19,-44,-48,-1749,-1733,254166
41,-30,364,-1746,-1739,254280
16,-1,339,-1713,-1775,254335
11,-14,10,-1787,-1789,254275
-50,-23,-4,-1752,-1781,254160
-134,-8,316,-1720,-1772,254271
-196,12,134,-1665,-1688,254280
-84,10,-355,-1661,-1691,254253
43,10,-222,-1647,-1725,254095
62,23,164,-1686,-1686,254229
-7,8,69,-1681,-1713,254233
12,-25,-256,-1786,-1785,254151
103,-96,-18,-1757,-1803,254210
81,-128,273,-1693,-1755,254257
43,-162,70,-1697,-1670,254232
134,-188,-307,-1812,-1671,254218
281,-142,-167,-1700,-1731,254196
313,-49,179,-1727,-1764,254335
318,-11,-38,-1744,-1778,254358
335,-5,-320,-1681,-1743,254269
292,-39,-136,-1701,-1701,254238
180,-81,309,-1700,-1655,254314
134,-109,65,-1745,-1736,254304
260,-166,-279,-1693,-1743,254154
297,-155,-147,-1768,-1755,254157
254,-106,225,-1782,-1783,254160
190,-86,22,-1776,-1716,254304
286,-72,-291,-1716,-1704,254159
280,-29,-19,-1771,-1738,254163
154,5,263,-1734,-1653,254268
63,-1,-22,-1744,-1714,254272
148,-26,-395,-1751,-1789,254152
189,4,-75,-1695,-1751,254211
116,80,143,-1737,-1738,254290
119,91,-7,-1718,-1698,254261
203,56,-228,-1740,-1759,254235
231,29,152,-1737,-1782,254256
81,7,416,-1781,-1779,254335
51,-9,186,-1736,-1709,254313
116,-4,-119,-1726,-1791,254181
118,54,36,-1752,-1739,254081
-30,141,173,-1826,-1668,254197
-78,219,-200,-1767,-1713,254233
34,257,-360,-1794,-1661,254114
70,253,-9,-1745,-1709,254160
-50,196,321,-1752,-1729,254290
-103,81,-9,-1718,-1782,254268
-11,-13,-155,-1717,-1756,254224
-8,-12,113,-1742,-1754,254168
-103,69,251,-1764,-1713,254253
-107,107,-177,-1798,-1714,254296
72,105,-244,-1673,-1627,254264
113,99,160,-1660,-1667,254240
13,96,274,-1704,-1735,254385
-40,97,-70,-1673,-1758,254294
1,48,-156,-1694,-1796,254125
-99,61,128,-1683,-1721,254230
-270,56,60,-1733,-1694,254323
-251,44,-222,-1790,-1732,254340
-67,6,-270,-1680,-1746,254179
-30,-60,135,-1701,-1751,254208
-141,-100,217,-1738,-1720,254260
-195,-163,-44,-1806,-1732,254278
-161,-172,-205,-1769,-1741,254280
-197,-68,91,-1705,-1720,254201
-259,59,-26,-1717,-1692,254199
-266,136,-473,-1745,-1662,254201
-83,141,-457,-1734,-1798,254241
-37,100,43,-1659,-1686,254163
-143,45,184,-1714,-1676,254348
-193,-39,-171,-1718,-1779,254301
-200,-82,-42,-1710,-1786,254230
-237,-53,301,-1693,-1714,254277
-217,17,234,-1685,-1740,254223
-62,87,-268,-1658,-1773,254222
70,151,-163,-1715,-1753,254244
36,170,196,-1684,-1726,254249
-89,149,248,-1750,-1700,254219
-111,111,-89,-1772,-1731,254146
-123,130,53,-1742,-1725,254114
-184,140,325,-1766,-1721,254253
-185,162,242,-1727,-1642,254254
-71,112,-244,-1692,-1695,254150
59,73,-159,-1674,-1728,254114
42,39,228,-1713,-1716,254243
9,-4,276,-1725,-1767,254311
10,-36,-69,-1695,-1736,254266
-35,-13,80,-1741,-1690,254300
-198,42,375,-1788,-1705,254279
-290,108,72,-1832,-1696,254262
-194,121,-444,-1806,-1679,254237
-58,122,-284,-1778,-1704,254256
-11,80,90,-1670,-1720,254190
49,7,1,-1713,-1695,254201
151,-65,-229,-1722,-1698,254182
147,-84,52,-1722,-1699,254244
-7,-81,309,-1794,-1694,254354
-121,-55,43,-1739,-1712,254320
-28,-52,-365,-1717,-1735,254232
89,-8,-216,-1676,-1687,254175
122,28,28,-1656,-1682,254235
119,70,-135,-1670,-1739,254336
214,46,-404,-1708,-1707,254260
220,65,-23,-1703,-1745,254223
62,85,265,-1692,-1742,254278
-81,70,-43,-1739,-1746,254356
3,7,-353,-1760,-1638,254222
81,-51,-15,-1704,-1698,254074
53,-83,218,-1713,-1733,254256
24,-69,-49,-1670,-1786,254330
127,-62,-236,-1659,-1741,254112
93,0,172,-1746,-1705,254097
-119,82,367,-1766,-1698,254279
-241,125,-40,-1755,-1781,254351
-149,124,-298,-1780,-1757,254194
-64,121,35,-1704,-1724,254227
-109,83,217,-1709,-1695,254280
-68,21,-103,-1779,-1738,254316
53,-73,-223,-1849,-1753,254234
71,-83,285,-1735,-1748,254224
-89,-48,505,-1710,-1680,254294
-199,-21,37,-1753,-1691,254287
-195,-11,-230,-1798,-1709,254184
-190,34,108,-1717,-1765,254231
-168,75,194,-1689,-1821,254298
-50,70,-239,-1712,-1723,254220
95,43,-336,-1714,-1713,254228
74,31,198,-1684,-1742,254224
-31,22,389,-1725,-1759,254291
-50,-12,-65,-1722,-1667,254188
5,3,-225,-1701,-1717,254173
-8,46,171,-1710,-1683,254260
-57,56,170,-1731,-1695,254491
27,-16,-313,-1757,-1730,254358
132,-43,-337,-1703,-1752,254269
44,-20,151,-1650,-1715,254347
-150,41,283,-1756,-1683,254327
-262,97,-132,-1763,-1688,254156
-238,127,-183,-1821,-1769,253997
-245,156,177,-1756,-1697,254198
-223,128,196,-1742,-1697,254259
-134,44,-290,-1739,-1660,254281
-27,-53,-230,-1749,-1776,254180
-113,-80,238,-1700,-1690,254273
-181,-46,375,-1762,-1715,254288
-115,24,-61,-1766,-1735,254218
-12,112,-125,-1757,-1673,254215
-89,194,175,-1799,-1748,254263
-180,201,30,-1808,-1698,254311
-49,119,-431,-1761,-1655,254144
134,30,-388,-1715,-1730,254147
106,-1,99,-1712,-1717,254208
-55,-16,132,-1730,-1767,254276
-30,-52,-116,-1793,-1628,254162
40,-63,-42,-1729,-1692,254371
-26,-26,314,-1803,-1759,254274
-155,13,128,-1796,-1739,254304
-72,-14,-326,-1745,-1748,254277
45,-50,-245,-1784,-1779,254073
29,-25,177,-1786,-1761,254158
-3,16,97,-1689,-1709,254305
80,52,-244,-1749,-1710,254205
129,90,-47,-1690,-1694,254204
1,85,305,-1731,-1665,254320
-73,36,84,-1711,-1768,254320
84,-77,-378,-1841,-1800,254219
229,-150,-175,-1777,-1758,254145
206,-152,272,-1748,-1807,254231
169,-142,129,-1742,-1739,254310
132,-91,-247,-1727,-1733,254246
150,-34,-38,-1702,-1738,254284
11,48,311,-1695,-1657,254302
-95,46,-18,-1769,-1704,254255
-22,-41,-443,-1736,-1755,254194
56,-126,-204,-1726,-1692,254093
52,-146,225,-1741,-1756,254293
91,-136,6,-1799,-1708,254162
183,-124,-304,-1840,-1741,254195
143,-59,33,-1756,-1705,254249
-10,6,404,-1746,-1702,254360
-59,25,49,-1704,-1714,254358
29,36,-355,-1730,-1729,254193
36,85,-59,-1768,-1780,254261
-49,135,317,-1684,-1727,254322
-25,150,67,-1758,-1704,254243
107,152,-205,-1690,-1788,254103
120,181,160,-1631,-1711,254156
-32,196,469,-1702,-1686,254282
-97,141,122,-1688,-1685,254270
-34,32,-198,-1773,-1768,254072
-16,-8,112,-1803,-1849,254034
-38,-7,327,-1733,-1807,254147
94,12,-47,-1798,-1769,254297
278,54,-363,-1801,-1671,254209
265,129,-92,-1746,-1791,254186
119,208,141,-1744,-1756,254247
9,236,-126,-1804,-1667,254292
70,192,-359,-1708,-1594,254239
20,143,-23,-1759,-1672,254209
-57,61,248,-1740,-1721,254300
-15,-26,-27,-1702,-1701,254228
112,-93,-252,-1705,-1755,254150
82,-65,122,-1706,-1756,254158
-59,10,364,-1746,-1743,254282
-77,59,32,-1828,-1741,254284
20,79,-233,-1720,-1775,254292
-20,98,71,-1770,-1751,254269
-188,110,191,-1820,-1673,254331
-203,58,-215,-1744,-1736,254250
-110,13,-388,-1687,-1732,254180
-122,25,15,-1686,-1729,254245
-239,69,145,-1707,-1699,254278
-227,54,-212,-1738,-1626,254264
-126,2,-242,-1750,-1722,254248
-146,-31,207,-1714,-1735,254219
-244,-37,285,-1720,-1744,254356
-206,-55,-168,-1767,-1736,254173
-112,-28,-290,-1689,-1676,254088
-165,51,27,-1630,-1641,254137
-301,147,104,-1803,-1743,254387
-168,164,-231,-1782,-1697,254259
-31,154,-232,-1732,-1747,254145
-6,111,207,-1749,-1671,254213
-126,59,221,-1695,-1706,254292
-73,-27,-227,-1726,-1780,254226
80,-94,-216,-1765,-1783,254250
119,-69,267,-1787,-1716,254265
3,14,240,-1768,-1728,254305
-10,50,-169,-1741,-1706,254224
-5,90,-63,-1783,-1733,254258
-69,99,389,-1735,-1724,254236
-160,101,301,-1770,-1668,254331
-120,68,-120,-1788,-1777,254236
-30,42,-81,-1742,-1735,254140
-46,40,275,-1672,-1752,254248
-79,35,199,-1726,-1753,254353
7,30,-154,-1813,-1728,254279
41,33,-2,-1746,-1683,254226
-99,37,392,-1751,-1663,254320
-227,6,241,-1798,-1637,254363
-129,-43,-190,-1799,-1628,254256
6,-43,-182,-1733,-1719,254204
29,32,91,-1743,-1782,254278
7,92,-105,-1722,-1710,254244
-9,102,-425,-1732,-1777,254289
39,34,-155,-1720,-1780,254259
-71,-24,294,-1719,-1771,254253
-155,-98,126,-1748,-1715,254235
-90,-180,-278,-1780,-1718,254205
-25,-213,-145,-1703,-1672,254282
-44,-176,153,-1711,-1730,254280
-19,-100,-43,-1751,-1704,254338
118,-2,-393,-1715,-1682,254197
135,91,-208,-1694,-1674,254191
-50,140,153,-1709,-1680,254300
-177,118,10,-1746,-1653,254277
-110,37,-280,-1740,-1713,254232
-36,-14,-97,-1750,-1717,254243
-88,-13,200,-1713,-1735,254270
-102,-24,-16,-1760,-1669,254264
4,-56,-244,-1817,-1692,254244
34,-29,98,-1654,-1704,254251
-61,41,465,-1664,-1716,254211
-104,90,184,-1692,-1685,254268
-20,92,-84,-1744,-1693,254190
-6,109,121,-1752,-1733,254213
-89,143,235,-1747,-1733,254196
-61,167,-179,-1678,-1686,254220
124,177,-371,-1678,-1702,254179
142,181,28,-1646,-1642,254193
5,148,350,-1684,-1664,254207
-66,82,99,-1789,-1661,254273
21,28,-87,-1762,-1674,254137
58,28,136,-1704,-1718,254175
9,58,165,-1685,-1676,254240
69,17,-276,-1754,-1654,254188
249,-19,-465,-1727,-1726,254209
295,-10,-110,-1708,-1741,254210
163,42,70,-1692,-1699,254212
54,73,-243,-1723,-1673,254319
-14,69,-302,-1771,-1615,254131
-117,43,77,-1745,-1683,254168
-214,13,135,-1711,-1706,254252
-118,-55,-332,-1761,-1784,254286
50,-133,-415,-1742,-1742,254151
93,-158,68,-1762,-1730,254121
-13,-149,253,-1708,-1751,254248
-64,-104,-49,-1790,-1699,254357
-59,15,-85,-1764,-1714,254210
-142,144,259,-1775,-1653,254304
-222,195,269,-1751,-1655,254325
-153,112,-155,-1815,-1687,254235
-8,-15,-170,-1724,-1704,254216
16,-76,296,-1730,-1776,254203
22,-119,394,-1742,-1706,254329
28,-89,69,-1811,-1816,254245
105,-52,41,-1738,-1812,254270
7,14,374,-1686,-1704,254268
-93,65,318,-1650,-1713,254268
-35,46,-217,-1742,-1672,254323
60,5,-311,-1747,-1740,254156
80,-24,63,-1734,-1684,254293
81,-25,26,-1805,-1716,254255
152,-13,-302,-1755,-1782,254237
160,64,-196,-1672,-1733,254195
40,105,139,-1716,-1733,254180
-46,60,196,-1770,-1751,254231
49,-63,-197,-1755,-1799,254197
102,-156,-298,-1659,-1756,254280
6,-134,172,-1725,-1699,254261
-52,-68,69,-1706,-1735,254285
30,12,-412,-1711,-1710,254195
26,159,-112,-1703,-1844,254079
-130,287,285,-1711,-1711,254240
-212,285,-53,-1702,-1673,254252
-72,203,-295,-1728,-1737,254222
55,72,-80,-1760,-1725,254187
-8,-35,81,-1796,-1792,254281
-83,-46,22,-1813,-1811,254243
-53,1,-123,-1753,-1811,254329
-50,66,-35,-1727,-1731,254207
-175,165,371,-1785,-1675,254248
-220,204,395,-1781,-1665,254204
-85,107,-193,-1709,-1794,254265
-3,43,-151,-1661,-1792,254261
-58,11,358,-1749,-1788,254300
-68,-23,-21,-1760,-1749,254374
31,-6,-487,-1754,-1656,254151
74,100,113,-1771,-1701,254167
-49,170,384,-1731,-1729,254442
-162,113,-124,-1769,-1710,254320
-63,13,-145,-1813,-1729,254223
47,-88,108,-1671,-1710,254223
29,-160,20,-1703,-1729,254237
29,-88,-23,-1727,-1757,254262
83,-3,-252,-1729,-1757,254176
67,42,-273,-1693,-1730,254140
-24,139,318,-1729,-1723,254079
-81,166,154,-1756,-1590,254260
-46,57,-481,-1764,-1699,254241
-20,-30,53,-1723,-1727,254116
-69,-88,522,-1694,-1767,254230
-86,-176,-210,-1721,-1709,254312
109,-129,-300,-1670,-1775,254275
216,9,302,-1709,-1750,254284
78,66,177,-1689,-1694,254267
-9,103,-109,-1779,-1632,254272
42,64,-44,-1801,-1663,254227
-40,5,22,-1804,-1734,254241
-148,61,166,-1797,-1743,254260
-120,97,-33,-1786,-1708,254299
-2,53,-428,-1752,-1769,254226
60,71,18,-1693,-1693,254149
35,66,474,-1751,-1750,254176
30,30,-31,-1817,-1712,254270
78,-8,-231,-1734,-1688,254208
32,-51,304,-1780,-1748,254168
-117,-67,298,-1754,-1756,254286
-169,-45,-275,-1799,-1721,254216
-4,29,-380,-1719,-1709,254170
42,116,31,-1623,-1694,254239
-95,153,197,-1704,-1635,254287
-63,62,-160,-1744,-1690,254236
56,-67,-191,-1751,-1663,254172
